File: Tensile Tests/NiCoCrFe/X Direction PKA Tensile Test/NiCoCrFe_Tensile_5KeV.def1.txt
# Fix print output for fix def1
1.77636e-16 0.0175326 0.0164125 0.0134898
0.0002 -0.0170194 -0.00663858 0.0155356
0.0004 0.0249827 0.0187022 0.0715074
0.0006 -0.0140754 -0.0198008 0.0683848
0.0008 -0.00758192 -0.003884 0.09938
0.001 0.00753312 0.00161574 0.144816
0.0012 -0.00387425 -0.00328124 0.155434
0.0014 0.00669485 0.0088786 0.192595
0.0016 -0.00730697 -0.00712515 0.205573
0.0018 0.00914839 0.0083836 0.250115
0.002 -0.00703351 0.0012989 0.260681
0.0022 -0.0153111 -0.0126099 0.28907
0.0024 -0.00170238 -0.00401746 0.318654
0.0026 -0.00639286 0.00390132 0.347448
0.0028 -0.00490666 -0.00153896 0.371791
0.003 0.00218954 -0.0169256 0.391255
0.0032 0.00893835 0.0117532 0.441088
0.0034 -0.013706 -0.00446066 0.446632
0.0036 0.0114278 0.00787729 0.488333
0.0038 0.00267335 -0.0100603 0.50619
0.004 -0.00603969 0.00531278 0.53641
0.0042 0.0143731 0.00914729 0.575385
0.0044 -0.0228233 -0.0289914 0.565554
0.0046 0.0147219 0.0194663 0.633069
0.0048 -0.01069 -0.00789912 0.63545
0.005 0.00146778 0.00106394 0.662997
0.0052 -0.00218862 -0.00898015 0.692499
0.0054 0.0210836 0.0301134 0.742945
0.0056 -0.0167134 -0.0125009 0.745593
0.0058 0.00981366 -0.0019303 0.775122
0.006 -0.001025 -0.00700199 0.794635
0.0062 -0.00795723 0.00201468 0.82626
0.0064 0.0148074 0.0110481 0.870536
0.0066 -0.0169861 -0.0208098 0.86631
0.0068 0.0213084 0.0245061 0.919478
0.007 -0.0172779 -0.0120531 0.923506
0.0072 -0.000188726 0.00321354 0.955904
0.0074 0.00290935 -0.00401463 0.988039
0.0076 -0.00642018 -0.0056253 1.01031
0.0078 0.00386505 0.00260606 1.0456
0.008 -0.00411731 -0.00727813 1.07445
0.0082 -0.00244006 -0.00699895 1.08478
0.0084 0.00778257 0.0031086 1.1237
0.0086 -0.00695298 -0.00667799 1.14512
0.0088 -0.0105877 -0.0135967 1.16553
0.009 -0.00334172 -0.00557108 1.20073
0.0092 -0.014109 -0.0119924 1.22113
0.0094 0.0218962 0.0171211 1.27356
0.0096 -0.0216905 -0.0282092 1.26766
0.0098 -0.00485863 -0.00833901 1.31361
0.01 0.00215184 0.00995889 1.34318
0.0102 0.00116686 0.0073433 1.37163
0.0104 -0.0150828 -0.0198127 1.37234
0.0106 0.0147874 0.0131165 1.42765
0.0108 0.000296496 -0.0112271 1.44218
0.011 -0.00266552 0.000363253 1.47326
0.0112 -0.0061383 0.00671399 1.49594
0.0114 0.0277208 0.0158554 1.53675
0.0116 0.00569853 -0.0021998 1.54376
0.0118 -0.00656716 -0.00460492 1.57351
0.012 -0.0126546 -0.0143029 1.59133
0.0122 0.00364947 0.0125562 1.6291
0.0124 0.0224197 0.0173843 1.67356
0.0126 -0.0213984 -0.0135408 1.65986
0.0128 0.0314546 0.0248579 1.72777
0.013 -0.0148163 -0.00504723 1.73191
0.0132 0.00421357 0.00724704 1.7628
0.0134 0.0155047 0.00606463 1.7953
0.0136 0.000287349 -0.00791138 1.80478
0.0138 0.0038156 0.0110242 1.8418
0.014 -0.00319855 -0.00509741 1.86112
0.0142 0.00233981 -0.00112963 1.89152
0.0144 0.00207238 -0.0044646 1.91177
0.0146 -0.00182942 0.00477589 1.94945
0.0148 -0.0259476 -0.0312503 1.94879
0.015 0.0224769 0.0276401 2.01157
0.0152 -0.0232721 -0.0249877 2.00573
0.0154 0.0084459 0.00520819 2.06047
0.0156 -0.0125293 -0.0174591 2.0616
0.0158 -0.00203857 0.00497102 2.10924
0.016 0.00478621 0.00346388 2.12687
0.0162 -0.00304296 -0.00067196 2.15116
0.0164 0.00818374 0.0135559 2.18784
0.0166 -0.0174716 -0.0178647 2.19201
0.0168 0.0190168 0.016523 2.23956
0.017 -0.00752457 -0.0198107 2.248
0.0172 0.0131516 0.0218202 2.29276
0.0174 -0.0034895 -0.00902176 2.30691
0.0176 0.0093214 0.00664685 2.33784
0.0178 0.0180871 0.0119851 2.37411
0.018 -0.0181472 -0.0186007 2.37756
0.0182 0.00842168 0.00558788 2.42226
0.0184 -0.000882044 -0.00509138 2.44124
0.0186 -0.00385628 -0.00718889 2.45843
0.0188 0.00554991 0.00430797 2.4983
0.019 -0.00256448 -0.00549933 2.51562
0.0192 0.0204194 0.00890321 2.55198
0.0194 -0.00178613 -0.00204867 2.57282
0.0196 0.00118353 0.00412159 2.59712
0.0198 0.00606293 0.00154179 2.62113
0.02 0.00503222 0.0112635 2.64934
0.0202 -0.00373496 0.00116088 2.67194
0.0204 0.0132592 0.0124639 2.7004
0.0206 -0.00775981 -0.00977849 2.71749
0.0208 0.00465814 0.00952947 2.74736
0.021 -0.00605856 -0.00589676 2.77278
0.0212 0.00289033 0.00306731 2.80004
0.0214 0.00803998 0.0128406 2.82663
0.0216 -0.0234239 -0.024544 2.83243
0.0218 0.0234108 0.0277174 2.88986
0.022 -0.0193959 -0.0289834 2.88536
0.0222 0.0158376 0.0144754 2.93297
0.0224 0.00280779 -0.00198526 2.95429
0.0226 0.0100139 0.0200579 2.98621
0.0228 -0.00622747 -0.0177676 2.99451
0.023 0.000458587 -0.000100148 3.02633
0.0232 0.0168967 0.0184458 3.0699
0.0234 -0.00838356 -0.0155633 3.06966
0.0236 0.0114312 0.00374269 3.11025
0.0238 -0.00934079 -0.00935238 3.12474
0.024 -0.0149504 -0.0106869 3.14582
0.0242 -0.00281166 -0.00507957 3.17614
0.0244 0.0169082 0.00572462 3.21459
0.0246 0.00737128 6.73863e-05 3.23554
0.0248 -0.0219818 -0.0172857 3.23611
0.025 0.00348568 0.00886395 3.27729
0.0252 0.00186106 -0.00133328 3.30497
0.0254 -0.00711261 -0.00515163 3.32063
0.0256 0.00498853 0.00178952 3.35456
0.0258 -0.00283762 -0.0073719 3.3736
0.026 0.0152228 0.0082916 3.40953
0.0262 -0.00818982 -0.00428013 3.42979
0.0264 0.0134206 0.00556763 3.45322
0.0266 -0.015388 -0.0114633 3.47008
0.0268 0.00823771 0.00663004 3.50976
0.027 0.00493957 0.00904304 3.53118
0.0272 -0.0179635 -0.0173317 3.53216
0.0274 0.0224903 0.0195929 3.59203
0.0276 -0.00934777 -0.00507894 3.59766
0.0278 -0.00483561 0.00449761 3.61928
0.028 -0.00206804 0.000772862 3.65008
0.0282 -0.00047115 -0.00496613 3.67298
0.0284 0.00512586 0.00465422 3.70775
0.0286 0.00112969 0.00830564 3.7244
0.0288 -0.024896 -0.0257522 3.73054
0.029 0.014029 0.0112466 3.77803
0.0292 0.00926511 0.000642291 3.80272
0.0294 -0.0282251 -0.0285801 3.80495
0.0296 0.00537587 0.0139892 3.85156
0.0298 -0.00399011 -0.00487629 3.86421
0.03 0.00182349 -0.0104236 3.89454
0.0302 0.0162489 0.0198536 3.92974
0.0304 -0.00667637 -0.00390403 3.94846
0.0306 0.00685038 0.00196364 3.97705
0.0308 -0.00215885 0.00774555 3.99798
0.031 -0.011516 -0.010973 4.00873
0.0312 0.0248454 0.0282698 4.0609
0.0314 -0.0186357 -0.016326 4.05285
0.0316 0.0184123 0.0153545 4.09977
0.0318 0.00612053 0.00136304 4.12082
0.032 -0.00930233 -0.00951505 4.13062
0.0322 -0.000856406 8.0419e-05 4.163
0.0324 -0.00391065 -0.0150077 4.17662
0.0326 0.0169986 0.0197465 4.22578
0.0328 -0.000120429 -0.00116728 4.23635
0.033 0.0070688 -0.00197111 4.26097
0.0332 0.00987368 0.00424449 4.28635
0.0334 -0.0216941 -0.0156132 4.28978
0.0336 0.0122133 0.0133952 4.34116
0.0338 -0.010886 -0.015069 4.34226
0.034 0.00991511 0.010319 4.3797
0.0342 -0.00457046 -0.00468514 4.39714
0.0344 -0.0026326 -0.00374623 4.42305
0.0346 -0.00520019 -0.00353116 4.44363
0.0348 0.0117233 0.00982513 4.47639
0.035 -0.0154519 -0.0152092 4.49117
0.0352 -0.00159832 -0.00367045 4.52021
0.0354 -0.0017592 -0.00758675 4.53876
0.0356 0.00841646 0.0106134 4.5706
0.0358 -0.000728465 0.0101318 4.59077
0.036 0.00639144 -0.00964314 4.61126
0.0362 0.0114833 0.00487239 4.6442
0.0364 -0.00623364 0.0040251 4.6516
0.0366 -0.0167483 -0.0102574 4.67505
0.0368 0.000742013 0.00200281 4.71438
0.037 0.00585875 -0.00501578 4.72602
0.0372 -0.0044782 -0.00371825 4.75265
0.0374 -0.00375541 0.0123973 4.78404
0.0376 0.00253546 0.00687727 4.8044
0.0378 -0.00456458 -0.00812945 4.82508
0.038 0.00421649 -0.00472616 4.84436
0.0382 -0.00413614 0.00102918 4.87038
0.0384 0.00195747 0.0102618 4.89574
0.0386 -0.0121593 -0.00903104 4.9186
0.0388 0.00134339 -0.000208366 4.93712
0.039 0.0147469 0.00447385 4.96785
0.0392 -0.0228436 -0.0105195 4.97579
0.0394 0.00625522 0.0176144 5.02298
0.0396 -0.0036451 -0.00989962 5.03742
0.0398 0.0163534 0.0132356 5.06386
0.04 0.0175343 0.0132369 5.09461
0.0402 -0.0130666 -0.0141634 5.09898
0.0404 0.0203944 0.0288192 5.14044
0.0406 -0.00740454 -0.0128818 5.1457
0.0408 0.00304889 0.000549527 5.17747
0.041 0.00351821 -0.00036951 5.19541
0.0412 0.00204698 0.00378382 5.22225
0.0414 -0.0115881 -0.00782848 5.23391
0.0416 -0.00398046 -0.00353388 5.2697
0.0418 0.00465095 0.00948516 5.29332
0.042 -0.00616754 -0.00159154 5.29928
0.0422 -0.00300451 -0.00544037 5.33302
0.0424 0.0010282 -0.00382223 5.35801
0.0426 0.0157896 0.0150737 5.3862
0.0428 -0.0121503 -0.0139991 5.39946
0.043 0.00470489 0.00517908 5.42169
0.0432 -0.000918856 0.00855395 5.44977
0.0434 0.00169571 -0.00114671 5.46849
0.0436 -0.00755446 -0.0179997 5.48377
0.0438 0.0104335 0.00264276 5.5166
0.044 -0.0104755 -0.0070232 5.53161
0.0442 -0.013328 -0.0113513 5.54819
0.0444 0.00937934 0.00862726 5.58837
0.0446 -0.0119639 -0.016637 5.60634
0.0448 0.0232371 0.0142381 5.6321
0.045 -0.0217362 -0.0178529 5.63933
0.0452 0.0171252 0.020775 5.68375
0.0454 0.00722765 -0.00125445 5.69561
0.0456 0.00853503 0.0102773 5.72735
0.0458 0.00781895 0.016602 5.73892
0.046 0.00860207 0.00896999 5.76714
0.0462 0.00421254 0.00151829 5.78935
0.0464 0.00265658 0.00666318 5.80866
0.0466 -0.0158942 -0.0200741 5.81876
0.0468 -0.00654486 -0.00394969 5.85315
0.047 -0.00308047 -0.00374014 5.87054
0.0472 0.00502526 0.00231518 5.89867
0.0474 0.00703173 0.0108472 5.923
0.0476 -0.0169256 -0.022589 5.92809
0.0478 -0.00480097 0.00232777 5.96829
0.048 -0.00971095 -0.0184842 5.98377
0.0482 0.0131602 0.0175107 6.01888
0.0484 -0.00712632 -0.0148205 6.02677
0.0486 -0.00387621 -0.00847363 6.04735
0.0488 0.00701169 0.0105254 6.07932
0.049 0.000831493 -0.0010644 6.10269
0.0492 0.00203276 0.0016824 6.1225
0.0494 -0.0132885 -0.00753321 6.13521
0.0496 -0.000923613 0.000354731 6.16524
0.0498 0.0241514 0.0148172 6.20283
0.05 -0.0156571 -0.0195378 6.19786
0.0502 0.000589368 0.00161189 6.22941
0.0504 0.0025998 0.00783043 6.26388
0.0506 0.000453674 0.00614729 6.27275
0.0508 0.0119291 0.00975886 6.3079
0.051 -0.0217837 -0.0222709 6.30578
0.0512 0.0173493 0.0136216 6.35883
0.0514 -0.00725366 0.00286921 6.35771
0.0516 -0.0086774 -0.00305091 6.38153
0.0518 0.00186106 -0.00163207 6.40706
0.052 0.00170116 0.00506545 6.43024
0.0522 0.000261836 -4.91504e-05 6.46009
0.0524 -0.00301072 -0.0057825 6.47545
0.0526 -0.00636323 -0.00963192 6.49548
0.0528 0.00224723 0.0026155 6.52848
0.053 -0.0296703 -0.0243206 6.52477
0.0532 0.0293877 0.0219338 6.58984
0.0534 -0.0039256 -0.00232424 6.57341
0.0536 -0.00228983 -0.00246562 6.61335
0.0538 0.0134549 0.0185169 6.63603
0.054 -0.0130361 -0.0121937 6.64478
0.0542 -0.00890664 -0.00261852 6.66596
0.0544 0.0123038 0.011591 6.70519
0.0546 -0.0099214 -0.0161991 6.70237
0.0548 0.00707039 0.000605873 6.73938
0.055 -0.0032463 -0.0196947 6.75242
0.0552 -0.0188465 -0.0102703 6.77341
0.0554 0.000169953 0.00756331 6.80964
0.0556 0.00489027 0.00671919 6.8297
0.0558 0.00733068 -0.00693298 6.84772
0.056 -0.0115507 -0.0148196 6.86425
0.0562 0.00657731 0.00700418 6.89704
0.0564 -0.0362567 -0.0244933 6.89663
0.0566 0.00970152 0.0121084 6.94421
0.0568 0.00678731 -0.000375625 6.96138
0.057 -0.0133609 -0.0194176 6.97226
0.0572 0.000319722 -0.00318667 7.00178
0.0574 -0.00451357 0.000251532 7.02338
0.0576 -0.00549353 0.00397983 7.05014
0.0578 -0.0119587 -0.0184564 7.06135
0.058 0.0212253 0.0129769 7.09133
0.0582 -0.00762568 -0.00443348 7.11503
0.0584 -0.00612548 -0.000321803 7.13794
0.0586 0.00834488 0.0124138 7.1642
0.0588 0.0136552 0.014747 7.18949
0.059 -0.0157423 -0.016613 7.19734
0.0592 0.0142056 0.00951844 7.23113
0.0594 -0.00206705 -0.000548349 7.24362
0.0596 -0.0028996 0.00550843 7.26481
0.0598 -0.0133189 -0.00841041 7.28471
0.06 -0.00747785 -0.00277167 7.30132
0.0602 0.00222799 -0.0028643 7.32737
0.0604 -0.00271236 -0.00454889 7.35414
0.0606 0.00540258 0.0104874 7.37942
0.0608 0.00027551 0.0039771 7.3996
0.061 0.0025317 0.00211354 7.42091
0.0612 0.0113274 0.00324818 7.44594
0.0614 -0.032337 -0.0375444 7.44915
0.0616 0.0290659 0.0273576 7.50433
0.0618 -0.00152915 -0.00154483 7.50079
0.062 -0.0228811 -0.0153943 7.51662
0.0622 0.0339012 0.0436445 7.57463
0.0624 -0.032479 -0.0317917 7.54399
0.0626 0.0243736 0.0162236 7.60569
0.0628 0.0122318 0.0136673 7.62397
0.063 -0.00759958 -0.013385 7.62825
0.0632 0.00918894 0.0159469 7.65416
0.0634 -0.013949 -0.0114122 7.67527
0.0636 0.0248902 0.0270933 7.7189
0.0638 0.000204766 -0.00932813 7.7205
0.064 -0.00535238 -0.0111566 7.73823
0.0642 -0.00253824 0.000247713 7.76748
0.0644 0.00053953 0.0122938 7.78516
0.0646 -0.0075102 -0.00637561 7.80808
0.0648 0.000508454 -0.00123846 7.82956
0.065 0.0217041 0.0260226 7.868
0.0652 -0.0325699 -0.0344029 7.85989
0.0654 0.0220071 0.029351 7.90923
0.0656 -0.00832153 -0.00807189 7.905
0.0658 0.000702546 0.00382618 7.94659
0.066 0.00296263 0.00760894 7.95686
0.0662 -0.00471944 0.00186213 7.98385
0.0664 0.0012027 -0.00516454 7.99872
0.0666 0.00163222 -0.00831699 8.02334
0.0668 0.00506581 -0.00106822 8.05651
0.067 0.00734108 0.0041528 8.06989
0.0672 -0.0135637 0.00319045 8.09515
0.0674 0.0114777 0.0164802 8.11888
0.0676 -0.0199198 -0.0302801 8.12088
0.0678 0.0121991 0.00354235 8.16936
0.068 0.0207614 0.00634125 8.18317
0.0682 -0.0231608 -0.0160356 8.18743
0.0684 0.0256122 0.0375101 8.24838
0.0686 -0.012821 -0.0258168 8.23622
0.0688 0.0167616 0.00759932 8.27173
0.069 0.0254559 0.0288246 8.31179
0.0692 -0.026348 -0.0319223 8.29263
0.0694 0.018546 0.0265638 8.34146
0.0696 -0.0107523 -0.00658169 8.35008
0.0698 -0.00506059 0.00522191 8.37907
0.07 0.0100002 0.0048166 8.40194
0.0702 0.00106167 -0.00686772 8.4216
0.0704 0.0107544 0.00108175 8.43826
0.0706 0.00700692 0.0102385 8.47049
0.0708 -0.00398302 -0.00398635 8.48181
0.071 -0.00876193 -0.00441279 8.50604
0.0712 0.00133945 0.00272988 8.53221
0.0714 0.0106554 0.00909389 8.55474
0.0716 -0.0128458 -0.0101192 8.56909
0.0718 -0.00695347 -0.00911791 8.58532
0.072 0.0195816 0.019805 8.62772
0.0722 -0.00394854 -0.00846353 8.63476
0.0724 -0.0170086 -0.005484 8.65138
0.0726 0.0186238 0.0276023 8.6998
0.0728 -0.0107916 -0.0163425 8.69337
0.073 0.0199819 0.0138655 8.7394
0.0732 0.0194781 0.0178707 8.75875
0.0734 -0.0265394 -0.0259781 8.75962
0.0736 0.0132233 0.0175142 8.79897
0.0738 -0.018836 -0.0156365 8.80641
0.074 0.0165689 0.0154991 8.84836
0.0742 -0.00305677 -0.0121778 8.855
0.0744 -0.0109599 -0.00772056 8.87156
0.0746 -0.00369708 -0.000828948 8.89743
0.0748 -0.00581295 -0.00414167 8.92734
0.075 0.00842112 -0.00064353 8.94354
0.0752 -0.0108513 -0.00816097 8.97265
0.0754 0.0069566 0.00651325 8.99635
0.0756 0.0104428 0.0100504 9.02052
0.0758 -0.0103974 -0.0177306 9.02861
0.076 0.00266883 -0.0004212 9.05588
0.0762 -0.00655154 0.00221491 9.07988
0.0764 0.00533386 0.000632935 9.09582
0.0766 -0.00319002 -0.012984 9.11869
0.0768 -0.000865451 -0.00907498 9.13805
0.077 -0.00336511 0.00273163 9.16224
0.0772 -0.00545583 -0.0012665 9.1869
0.0774 0.0168215 0.02444 9.217
0.0776 -0.00386099 -0.00390322 9.22526
0.0778 0.00626942 0.00654342 9.25384
0.078 0.00209043 0.0085654 9.2745
0.0782 0.0119062 0.00799467 9.30239
0.0784 -0.00541938 -0.00909944 9.31213
0.0786 -0.0107054 -0.00267654 9.34081
0.0788 0.0239272 0.0236385 9.37253
0.079 -0.041646 -0.0417999 9.35336
0.0792 0.0216419 0.0211375 9.41989
0.0794 0.0316584 0.0236278 9.4378
0.0796 -0.0276025 -0.0315503 9.43603
0.0798 0.033247 0.0285265 9.48926
0.08 -0.00163458 -0.00259353 9.49135
0.0802 -0.00300817 -0.0115116 9.51159
0.0804 0.0258761 0.0275884 9.54699
0.0806 -0.0215643 -0.0167966 9.55009
0.0808 0.0113552 0.0152698 9.59329
0.081 -0.0214186 -0.0193631 9.59106
0.0812 0.0214076 0.0138001 9.63438
0.0814 0.00518289 0.0064204 9.64887
0.0816 -0.0240395 -0.0173965 9.6606
0.0818 0.0209992 0.0226646 9.70453
0.082 -0.0120067 -0.0085796 9.70332
0.0822 0.0177612 0.0192089 9.74348
0.0824 -0.0118291 -0.00190243 9.75104
0.0826 -0.00163176 -0.0050587 9.78167
0.0828 0.0088077 -0.00991003 9.80081
0.083 -0.00488721 -0.0116529 9.82469
0.0832 0.0167997 0.0150617 9.85183
0.0834 -0.000224115 0.00977587 9.87512
0.0836 -0.00136103 0.00215089 9.88808
0.0838 0.000231938 0.00297514 9.91628
0.084 -0.00132949 -0.00688967 9.93764
0.0842 0.0156139 -0.00135893 9.95889
0.0844 -0.00834773 -0.0130005 9.97185
0.0846 -0.00564433 -0.00334242 10.0011
0.0848 0.00475832 0.00280842 10.0217
0.085 0.00777249 0.00845081 10.051
0.0852 -0.0124253 -0.00467606 10.0625
0.0854 -0.00140693 0.00744008 10.0874
0.0856 0.00756007 0.00390555 10.115
0.0858 -0.017398 -0.0136094 10.1272
0.086 -0.00182722 -0.00102923 10.1556
0.0862 -0.0211729 -0.0118277 10.1749
0.0864 0.00758764 0.0140908 10.2039
0.0866 -0.00933565 -0.00586112 10.2197
0.0868 0.0116507 0.0142534 10.2509
0.087 -0.00424276 -0.00723944 10.2697
0.0872 -0.0132803 -0.0121514 10.2897
0.0874 0.00211624 0.00173488 10.3179
0.0876 -0.00340984 -0.000994099 10.3331
0.0878 0.0193313 0.0179041 10.3695
0.088 -0.0062201 -0.0117519 10.3678
0.0882 0.0200726 0.0147367 10.4163
0.0884 0.0186682 0.0176493 10.43
0.0886 -0.0276069 -0.0331986 10.439
0.0888 0.0241654 0.0214125 10.4818
0.089 -0.0139915 -0.0148698 10.4922
0.0892 0.00522549 0.00863034 10.5261
0.0894 0.0158881 0.0252319 10.5516
0.0896 -0.0288052 -0.0262172 10.5514
0.0898 0.0382796 0.0291157 10.5981
0.09 -0.0100595 -0.00661601 10.6066
0.0902 -0.0111427 -0.0170134 10.6275
0.0904 0.0219592 0.0238246 10.6631
0.0906 -0.0131076 -0.0239402 10.6705
0.0908 0.00321537 0.00320367 10.7
0.091 0.00580181 0.0121923 10.7219
0.0912 -0.00530231 -0.00196121 10.7412
0.0914 0.0114009 0.0140978 10.7665
0.0916 -0.00608716 -0.00285834 10.788
0.0918 -0.00841673 -0.0100348 10.8018
0.092 0.00868094 0.00850533 10.8339
0.0922 -0.00577536 -0.00232079 10.8544
0.0924 -0.0119877 -0.0110217 10.864
0.0926 0.00579984 -0.00410586 10.9009
0.0928 0.0104958 0.00855529 10.9254
0.093 0.0066418 0.0075622 10.9465
0.0932 0.00596745 0.0163001 10.9794
0.0934 0.00563532 0.00240622 10.9923
0.0936 -0.0166523 -0.0167644 10.9996
0.0938 0.0211393 0.0177057 11.0515
0.094 -0.00217137 -0.00634061 11.0553
0.0942 -0.00700165 -0.008531 11.0762
0.0944 0.0178755 0.0214228 11.1198
0.0946 -0.0140857 -0.0179511 11.1189
0.0948 -0.00945708 -0.0158809 11.1466
0.095 0.0263281 0.0274855 11.1811
0.0952 -0.0308467 -0.0231634 11.1801
0.0954 0.0254146 0.0155267 11.2273
0.0956 0.0269552 0.0201338 11.2468
0.0958 -0.0100206 -0.0220262 11.264
0.096 0.0144819 0.0136654 11.2884
0.0962 0.00203657 0.00391068 11.3137
0.0964 -0.000747439 0.00151839 11.328
0.0966 0.0108659 0.0136256 11.3561
0.0968 -0.0207923 -0.0177626 11.3657
0.097 0.021164 0.0172037 11.4054
0.0972 0.00947666 0.0105124 11.4246
0.0974 -0.0136666 -0.0112163 11.4349
0.0976 0.0184719 0.0160236 11.4722
0.0978 -0.0099552 -0.00406491 11.486
0.098 -0.0136247 -0.0122785 11.5109
0.0982 0.000929049 -0.00353699 11.5353
0.0984 -0.0122591 -0.0089429 11.5518
0.0986 0.0270155 0.016432 11.591
0.0988 -0.0171348 -0.0137713 11.5959
0.099 -0.027321 -0.02265 11.6095
0.0992 0.0116024 0.0181789 11.6565
0.0994 -0.0108187 -0.00695791 11.6647
0.0996 -0.00481239 -0.0115167 11.6956
0.0998 0.0161417 0.00416305 11.7226
0.1 -0.0188454 -0.026588 11.7245
0.1002 -0.00594316 -0.00374902 11.7506
0.1004 -0.000780472 0.000939129 11.7839
0.1006 -0.02625 -0.0131962 11.8015
0.1008 0.0150465 0.0154791 11.8394
0.101 0.0159682 0.00504315 11.8565
0.1012 -0.00550197 -0.00933422 11.8715
0.1014 -0.0126033 -0.00987445 11.8903
0.1016 0.0115803 0.012278 11.9269
0.1018 0.00936171 0.0075304 11.9569
0.102 -0.0125438 -0.0138546 11.9659
0.1022 0.0141198 0.0182712 12.0044
0.1024 0.00309664 -0.000339107 12.0146
0.1026 0.00346791 0.0024731 12.0434
0.1028 0.000437956 0.00300584 12.0603
0.103 -0.00715297 -4.67218e-06 12.0859
0.1032 -0.00687739 -0.00100667 12.1091
0.1034 -0.00936605 -0.00750047 12.1246
0.1036 -0.00693076 -0.011424 12.1523
0.1038 0.0215718 0.0146845 12.197
0.104 -0.0144522 -0.0109999 12.1962
0.1042 0.00405957 0.00636295 12.229
0.1044 0.0174976 0.0210525 12.2596
0.1046 -0.0206655 -0.0173207 12.2697
0.1048 -0.00462609 -0.00717153 12.2996
0.105 0.0234751 0.021805 12.3305
0.1052 -0.0215908 -0.0182617 12.3393
0.1054 0.00434943 0.00974921 12.3706
0.1056 0.015107 0.0180994 12.3899
0.1058 -0.031281 -0.0357239 12.3949
0.106 0.0179881 0.0188805 12.44
0.1062 -0.00256252 0.00311517 12.4575
0.1064 -0.0264843 -0.0226565 12.4696
0.1066 0.0223095 0.0340488 12.5146
0.1068 -0.0195487 -0.00999633 12.5227
0.107 -0.012831 -0.00963278 12.5417
0.1072 0.0247487 0.0226046 12.5875
0.1074 -0.0127455 -0.018608 12.5916
0.1076 0.00577053 -0.00562667 12.6184
0.1078 0.00577115 0.00211131 12.6468
0.108 -0.0105094 -0.00208861 12.6699
0.1082 0.00786691 0.00917961 12.6975
0.1084 -0.00733312 0.00169052 12.7213
0.1086 -0.000998435 -0.00350813 12.7347
0.1088 0.00310279 -0.000579098 12.77
0.109 -0.0146877 -0.00920945 12.7857
0.1092 0.0134862 0.0065511 12.8138
0.1094 0.0181892 0.0128739 12.8351
0.1096 8.19208e-05 -0.000606991 12.8584
0.1098 -0.00393604 0.000427939 12.8751
0.11 -0.00903305 -0.0113134 12.9028
0.1102 0.00721676 0.00847258 12.9274
0.1104 -0.0135407 -0.0204354 12.9496
0.1106 0.00826522 0.0131022 12.971
0.1108 -0.00187547 -0.00728669 12.9985
0.111 -0.00560694 -0.0042083 13.0252
0.1112 0.01972 0.0179484 13.0526
0.1114 -0.0176746 -0.0224776 13.0642
0.1116 -0.0031584 -0.0104409 13.0918
0.1118 0.0152632 0.00712401 13.1177
0.112 -0.0230856 -0.0167762 13.1393
0.1122 0.00830838 0.0149371 13.1706
0.1124 0.00510786 0.0122217 13.1953
0.1126 -0.00268381 -0.00636525 13.2073
0.1128 0.0136357 0.0224195 13.2391
0.113 -0.000898786 -0.00395106 13.2625
0.1132 -0.00983064 -0.0107762 13.2772
0.1134 0.0187937 0.0110314 13.3183
0.1136 -0.010772 -0.0174004 13.3271
0.1138 0.0135394 0.00891943 13.3577
0.114 0.0021413 0.00271447 13.3806
0.1142 -0.00610422 -0.00177249 13.3972
0.1144 0.0136413 0.0111807 13.432
0.1146 -0.00597662 0.000377065 13.4505
0.1148 -0.0123722 -0.00933249 13.4739
0.115 0.0118281 0.00641915 13.4951
0.1152 0.00183236 -0.00700772 13.519
0.1154 0.00848697 0.00172613 13.552
0.1156 0.00189386 0.000544272 13.5585
0.1158 -0.00455692 -0.0127267 13.5944
0.116 0.0214111 0.0205708 13.6197
0.1162 -0.0029974 -0.00180845 13.6452
0.1164 -0.000903875 0.00258117 13.6625
0.1166 0.0175447 0.0217229 13.6863
0.1168 -0.0093413 -0.0155498 13.7101
0.117 0.0126199 0.0197908 13.7335
0.1172 -0.0102642 -0.00570969 13.7562
0.1174 -0.0181447 -0.00332171 13.7841
0.1176 0.011765 0.0117153 13.8121
0.1178 -0.00553305 -0.00454943 13.8224
0.118 0.000420664 -0.00640606 13.8556
0.1182 0.01598 0.00863081 13.885
0.1184 0.015319 0.00264804 13.9072
0.1186 -0.0182249 -0.0197725 13.9226
0.1188 -0.00764614 0.00206059 13.9455
0.119 0.0143278 0.0229783 13.9813
0.1192 -0.025904 -0.0165983 13.9804
0.1194 0.00270615 -0.000627818 14.0161
0.1196 0.00744658 0.0139233 14.0392
0.1198 -0.0214021 -0.0237386 14.0614
0.12 -0.00620056 -0.00848862 14.0885
0.1202 0.0148987 0.00858072 14.1201
0.1204 -0.0179826 -0.0170095 14.1346
0.1206 -0.011224 -0.00615219 14.154
0.1208 0.0148262 0.0147512 14.196
0.121 -0.00696976 -0.00305814 14.2118
0.1212 0.00357638 0.0124825 14.2459
0.1214 0.015548 0.0133501 14.2687
0.1216 -0.00277112 0.000692771 14.2849
0.1218 -0.0217608 -0.0181691 14.296
0.122 0.0106176 0.0104713 14.3339
0.1222 0.00243362 0.00680088 14.3615
0.1224 0.00157894 -0.000983707 14.3825
0.1226 0.0165275 0.0174313 14.4056
0.1228 -0.00682708 -0.0133811 14.4278
0.123 0.0144785 0.0135625 14.4572
0.1232 0.0112092 0.0167693 14.4761
0.1234 -0.0183549 -0.0187523 14.4869
0.1236 0.0150056 0.018592 14.5279
0.1238 0.0193519 0.0167138 14.5552
0.124 -0.0194703 -0.0209699 14.5638
0.1242 0.0135079 0.00989281 14.6009
0.1244 0.00707972 0.016777 14.6192
0.1246 -0.0211425 -0.0199396 14.6296
0.1248 0.00658487 0.00597823 14.6753
0.125 -0.00758055 -0.0018057 14.6896
0.1252 -0.00709906 -0.00923456 14.7083
0.1254 -0.00910193 -0.0103786 14.7392
0.1256 -6.16228e-05 -0.00113298 14.7579
0.1258 -0.000374801 -0.000431333 14.7939
0.126 -0.000351562 -0.00254382 14.8079
0.1262 -0.00425457 -0.00254247 14.8421
0.1264 0.00548413 0.00250585 14.8631
0.1266 -0.00487659 -0.00532291 14.8717
0.1268 0.00748582 0.00754087 14.911
0.127 -0.0306349 -0.0257196 14.9209
0.1272 0.019301 0.0203109 14.9595
0.1274 0.00495152 0.0134138 14.9801
0.1276 -0.0213422 -0.0133967 14.9986
0.1278 0.00197889 0.00242824 15.025
0.128 0.010634 0.00564353 15.0535
0.1282 -0.00595315 -0.00732341 15.0688
0.1284 0.0126796 0.0178459 15.109
0.1286 -0.0138932 -0.0121657 15.1208
0.1288 -0.0030789 -0.00242867 15.1492
0.129 0.00657055 0.00864928 15.1782
0.1292 -0.0125535 -0.0108793 15.1934
0.1294 0.000308397 -0.00177635 15.2201
0.1296 0.000466097 0.0085014 15.2474
0.1298 -0.000855638 -0.00441967 15.2675
0.13 -0.00333192 -0.00485261 15.2936
0.1302 0.0296091 0.03229 15.3333
0.1304 -0.0239056 -0.0257648 15.331
0.1306 -0.0074386 -0.00188331 15.3626
0.1308 0.0208573 0.0278122 15.393
0.131 -0.0348974 -0.0311813 15.4002
0.1312 2.13028e-05 0.00250834 15.4442
0.1314 0.0261399 0.0230338 15.4653
0.1316 -0.0139228 -0.00972992 15.4717
0.1318 0.0113331 0.0187928 15.505
0.132 0.00994269 0.0104437 15.5321
0.1322 -0.0123888 -0.0090817 15.5326
0.1324 0.0135484 0.0135997 15.5644
0.1326 0.00450191 0.00183483 15.5753
0.1328 -0.00196847 -0.000809563 15.6013
0.133 0.0261589 0.0147332 15.6186
0.1332 -0.00135558 -8.72485e-05 15.6363
0.1334 -0.00609226 -0.00610387 15.6394
0.1336 0.00298927 0.00980483 15.6719
0.1338 0.00591289 0.0186712 15.6801
0.134 0.00577733 0.00680194 15.6871
0.1342 -0.0106464 -0.0049705 15.6886
0.1344 -0.00176964 0.00373361 15.7053
0.1346 -0.00507751 -0.010798 15.7205
0.1348 0.0199907 0.0179548 15.7352
0.135 -0.0172591 -0.0137846 15.7153
0.1352 -0.0105119 -0.0157818 15.7271
0.1354 0.023923 0.0224061 15.747
0.1356 -0.0208586 -0.0124182 15.7237
0.1358 -0.00585058 0.00705668 15.7344
0.136 0.0132646 0.0110368 15.7347
0.1362 -0.0138362 -0.0122143 15.7087
0.1364 0.0145139 0.00964379 15.7073
0.1366 -0.0152373 -0.00856811 15.6663
0.1368 -0.00518334 -0.00400166 15.6494
0.137 0.0276621 0.0179928 15.6231
0.1372 -0.0123515 0.000621141 15.5786
0.1374 -0.0253575 -0.00644653 15.5197
0.1376 -0.00304303 0.021224 15.4549
0.1378 -0.00958679 0.00849123 15.3862
0.138 -0.000638855 0.0138649 15.2918
0.1382 0.00688864 0.0120607 15.1688
0.1384 0.0062999 0.00958303 15.0534
0.1386 0.00437355 0.0130225 14.913
0.1388 -0.00935497 0.00729409 14.7537
0.139 -0.00245193 -0.0054596 14.5982
0.1392 2.70837e-05 0.00652762 14.4278
0.1394 0.00537538 0.00899845 14.2766
0.1396 0.0113544 0.000789833 14.0717
0.1398 -0.021551 -0.0152674 13.8694
0.14 0.00700277 0.00915362 13.6675
0.1402 0.0204999 0.0340416 13.4341
0.1404 0.00447918 0.00164055 13.1757
0.1406 0.0124205 0.00113507 12.9106
0.1408 0.00586241 0.0220733 12.6297
0.141 -0.00683426 0.0026438 12.3217
0.1412 0.0131868 0.0309707 12.0223
0.1414 -0.0138968 0.00406692 11.6903
0.1416 0.0238012 3.33278e-05 11.3585
0.1418 0.0156697 0.00819116 11.0315
0.142 -0.013213 0.00149785 10.7233
0.1422 0.00442581 0.0144154 10.3744
0.1424 0.00311645 0.0252276 10.0412
0.1426 0.00124604 0.0215567 9.69744
0.1428 -0.00605955 0.0142127 9.35558
0.143 0.0138841 0.0193768 9.04843
0.1432 -0.0205194 0.0238489 8.6984
0.1434 0.000373274 0.032686 8.37736
0.1436 0.0108233 0.0237987 8.03713
0.1438 0.0102088 0.03521 7.70363
0.144 0.00328163 0.00229045 7.35176
0.1442 0.0165237 0.0249599 7.04552
0.1444 0.00193761 0.0197668 6.7109
0.1446 0.000708165 0.0234242 6.38705
0.1448 0.0277254 0.0404309 6.09189
0.145 -0.00238957 -0.0245798 5.78176
0.1452 -0.00260559 0.0197267 5.56503
0.1454 0.00181746 0.00667921 5.34563
0.1456 -0.00101356 0.00696904 5.1195
0.1458 0.00310648 0.00362838 4.90655
0.146 0.00175347 0.0124691 4.70269
0.1462 0.0051409 0.0119129 4.51319
0.1464 -0.000108418 -0.00030913 4.33079
0.1466 0.0138564 0.0376454 4.21309
0.1468 0.0150871 0.0311824 4.04589
0.147 -0.0186008 -0.00872856 3.88359
0.1472 0.029152 0.00263862 3.82152
0.1474 -0.0151574 -0.0143709 3.70194
0.1476 0.0303679 0.0249006 3.6476
0.1478 -0.0132205 -0.000334743 3.53595
0.148 0.0155075 0.00872124 3.50025
0.1482 0.0141094 0.00343704 3.45672
0.1484 -0.0240833 0.0157111 3.39919
0.1486 0.007307 -0.00250244 3.36936
0.1488 0.0105453 0.0307985 3.31928
0.149 0.000894216 0.00297154 3.27104
0.1492 0.0122489 0.00986814 3.24536
0.1494 0.00274033 0.00900805 3.23097
0.1496 0.0140665 0.0210207 3.21844
0.1498 -0.00293938 -0.00487218 3.18131
0.15 -0.00336245 0.0266664 3.18432
0.1502 0.00208807 -0.0214802 3.15283
0.1504 -0.00311568 -0.00146928 3.14035
0.1506 0.0141168 -0.00553308 3.11283
0.1508 -0.00639277 0.013825 3.08001
0.151 0.0131975 0.0102172 3.04438
0.1512 0.0161153 0.00795246 2.99983
0.1514 -0.00177113 -0.0315065 2.94733
0.1516 0.0237563 0.0185447 2.91444
0.1518 -0.0192424 -0.0287431 2.87502
0.152 0.000424181 -0.00572749 2.86768
0.1522 -0.0020178 -0.0134348 2.82954
0.1524 -0.00428681 -0.0166862 2.78396
0.1526 -0.00209329 0.0273478 2.75359
0.1528 -0.00228452 -0.020339 2.70776
0.153 0.00544981 0.00952721 2.67578
0.1532 -0.0060636 0.00710655 2.65424
0.1534 -0.000139913 -0.0175194 2.62189
0.1536 0.0155317 0.00816758 2.63426
0.1538 -0.0108782 -0.00459819 2.61988
0.154 0.0187173 0.013876 2.63129
0.1542 6.40203e-05 0.0058802 2.62675
0.1544 0.00162657 0.00202012 2.62399
0.1546 0.00743995 -3.73783e-05 2.62763
0.1548 -0.0136257 0.00811147 2.61417
0.155 -0.00794834 0.0125762 2.59868
0.1552 0.0222405 0.0251194 2.62485
0.1554 0.00194967 0.0058654 2.58828
0.1556 0.007504 -0.00203203 2.59533
0.1558 -0.0122033 -0.02132 2.55708
0.156 0.0152419 0.0112519 2.58382
0.1562 -0.0306076 -0.0101573 2.54564
0.1564 0.0252083 0.0155887 2.56917
0.1566 0.0194963 0.00819972 2.56707
0.1568 7.30646e-05 -0.00122183 2.54924
0.157 0.00447167 0.0106498 2.54107
0.1572 0.00396259 0.0135939 2.53875
0.1574 0.014813 0.0129189 2.54269
0.1576 -0.0031431 -0.00106305 2.51766
0.1578 -0.00390033 0.0188487 2.51714
0.158 0.000110323 -0.0183133 2.50361
0.1582 0.0368864 0.0178189 2.51389
0.1584 0.00781472 0.0189091 2.51623
0.1586 0.00517277 -0.00627754 2.49393
0.1588 0.0174123 0.00705331 2.51913
0.159 -0.0287532 -0.0218055 2.50397
0.1592 0.00172277 0.0150805 2.50324
0.1594 0.015217 -0.0299275 2.50894
0.1596 0.0064514 0.00378018 2.49419
0.1598 -0.0131942 0.0169192 2.50387
0.16 -0.00852903 -0.0208446 2.48439
0.1602 0.0358804 0.032588 2.49757
0.1604 -0.021327 -0.0135057 2.44677
0.1606 0.00806204 0.00264691 2.45866
0.1608 0.00305846 -0.00303608 2.45814
0.161 0.0106926 0.0094777 2.48189
0.1612 0.00151174 0.0205083 2.45828
0.1614 0.00814053 -0.0158037 2.42779
0.1616 -0.000126351 -0.00845569 2.40237
0.1618 -0.0228984 -0.00701275 2.39607
0.162 0.010543 0.0225803 2.41922
0.1622 0.00235696 -0.0181835 2.38279
0.1624 0.00523048 0.0179277 2.39142
0.1626 0.00758992 -0.0116549 2.37926
0.1628 -0.00100491 0.0150937 2.39239
0.163 -0.00928674 -0.026024 2.3636
0.1632 0.0210831 0.0236677 2.39698
0.1634 -1.95476e-05 -0.00779643 2.36627
0.1636 -0.0173575 -0.0247533 2.34622
0.1638 0.00215521 0.010974 2.36079
0.164 -0.00886852 -0.00533801 2.35581
0.1642 0.00816988 -0.00746199 2.35468
0.1644 -0.0121447 0.00351671 2.35614
0.1646 0.0287559 0.00744904 2.36687
0.1648 -0.0141236 0.00711073 2.35253
0.165 0.0245348 0.000267697 2.38431
0.1652 -0.0062407 -0.00206381 2.36792
0.1654 -0.00933143 0.00869524 2.37625
0.1656 0.0094544 0.0105995 2.38828
0.1658 0.00382127 -0.01163 2.39325
0.166 0.000148089 -0.021416 2.38275
0.1662 -0.00635459 0.0185031 2.40238
0.1664 0.0016114 -0.00325993 2.39044
0.1666 -0.00568436 -0.0078902 2.3992
0.1668 0.0140059 0.0116899 2.40771
0.167 -0.0156809 -0.00837229 2.40732
0.1672 -9.515e-05 -0.00614652 2.41119
0.1674 0.0180078 0.00991572 2.42909
0.1676 -0.00327203 0.00257038 2.45007
0.1678 0.0159667 -0.00225134 2.46273
0.168 -0.0205885 -0.0189588 2.44842
0.1682 0.00265358 0.0221674 2.44711
0.1684 -0.0201071 -0.00932865 2.4527
0.1686 0.00589675 -0.0024129 2.46494
0.1688 -0.0012397 0.0185303 2.47071
0.169 -0.00896903 -0.0104534 2.4759
0.1692 -0.00461445 -0.0021759 2.48396
0.1694 0.0025015 0.0208241 2.52278
0.1696 0.00206029 -0.00742226 2.5373
0.1698 0.0103629 0.00197584 2.56003
0.17 -0.0035557 0.00991038 2.56047
0.1702 0.00225776 -0.0034103 2.56513
0.1704 0.00277902 -0.00958381 2.55989
0.1706 0.0105464 0.0203996 2.60611
0.1708 -0.00273951 -0.0171832 2.58041
0.171 0.0210532 0.0243416 2.62922
0.1712 0.019093 0.0119764 2.61566
0.1714 0.00093208 -0.0125966 2.61857
0.1716 0.0139744 0.00422275 2.65793
0.1718 0.00613311 0.0143106 2.66722
0.172 -0.0158215 -0.00518487 2.66901
0.1722 -0.00692949 -0.0156204 2.68001
0.1724 0.0100481 0.0140794 2.70765
0.1726 -0.0183581 -0.0217216 2.70441
0.1728 0.025824 0.0241087 2.72913
0.173 -0.0124108 -0.00749415 2.71437
0.1732 0.0191207 0.0255883 2.74078
0.1734 -0.0136849 -0.0101253 2.72306
0.1736 0.000988486 -0.0021364 2.74323
0.1738 0.029947 0.00610904 2.77513
0.174 -0.039175 -0.0199123 2.72829
0.1742 0.0191721 0.0286733 2.78156
0.1744 -0.0178787 -0.0197725 2.74371
0.1746 0.00171402 0.0136854 2.78042
0.1748 -0.011884 -0.0288935 2.76857
0.175 0.00677503 0.00440525 2.80519
0.1752 -0.00494406 -0.00552496 2.78975
0.1754 0.00560765 -0.000429288 2.80073
0.1756 -0.00163758 0.0194954 2.8091
0.1758 -0.00963123 -0.0112537 2.80699
0.176 0.00742318 0.00635522 2.8143
0.1762 -0.0108374 -0.01747 2.80558
0.1764 0.00530693 0.0146731 2.83565
0.1766 0.00137599 0.0107819 2.84528
0.1768 -0.0305605 -0.0151483 2.81446
0.177 0.0437342 0.0201629 2.87373
0.1772 -0.0325925 -0.0258754 2.85128
0.1774 0.0323633 0.0377354 2.88879
0.1776 -0.00414879 0.00125434 2.87601
0.1778 -0.0209221 -0.0238899 2.85841
0.178 0.0224534 -0.00233005 2.89524
0.1782 -0.0286478 -0.0158693 2.88103
0.1784 0.0286245 0.0354949 2.93833
0.1786 -0.0166628 -0.00592899 2.90317
0.1788 0.0163323 0.00755969 2.9236
0.179 -6.40111e-06 -0.00127201 2.91556
0.1792 0.0217454 0.0163616 2.94073
0.1794 -0.00364339 -0.00830606 2.90765
0.1796 -0.00179509 0.00412874 2.94194
0.1798 0.0189134 0.0257099 2.94603
0.18 -0.00819902 -0.0066837 2.92672
0.1802 0.00890069 0.0202285 2.93626
0.1804 -0.0108424 0.00370723 2.94266
0.1806 0.0130198 -0.00859432 2.94171
0.1808 0.0224895 0.0169504 2.96326
0.181 -0.0291377 -0.00781476 2.94334
0.1812 0.0192801 0.028019 2.96511
0.1814 0.0181779 -0.0146825 2.9571
0.1816 0.00655251 -2.66967e-05 2.94849
0.1818 -0.00357701 0.0167047 2.94365
0.182 0.00708465 -0.00136019 2.95177
0.1822 0.00879455 0.00272714 2.95276
0.1824 -0.00532634 -0.000468908 2.95316
0.1826 -0.00358753 -0.00547904 2.9547
0.1828 -0.0213096 0.00767485 2.96332
0.183 0.0470722 0.0169644 2.98744
0.1832 -0.0151679 -0.00651487 2.95352
0.1834 0.00605498 0.00277816 2.9644
0.1836 0.0154076 0.00540873 2.96651
0.1838 0.00150454 -0.0139469 2.95461
0.184 -0.0111128 0.021241 2.95962
0.1842 -0.00576197 -0.00490315 2.96211
0.1844 0.00590784 -0.0167879 2.95829
0.1846 0.00477034 0.0113795 2.97153
0.1848 0.00171832 0.00156622 2.97286
0.185 0.02033 0.0209426 2.98893
0.1852 -0.0213183 -0.00810502 2.97556
0.1854 0.0270248 0.0245184 3.00116
0.1856 -0.0282386 -0.0325171 2.96523
0.1858 0.00650477 0.00933421 3.02773
0.186 0.00107128 0.00569016 3.03611
0.1862 -0.00565907 -0.0241363 3.03489
0.1864 0.0137514 0.01349 3.05716
0.1866 -0.0272985 -0.0189379 3.04269
0.1868 0.0372552 0.0409367 3.0923
0.187 0.000472806 -0.025241 3.06023
0.1872 0.0380671 0.0238491 3.10121
0.1874 -0.0162281 -0.0007234 3.09454
0.1876 -0.00156723 0.00678284 3.09743
0.1878 0.00799593 -0.0085478 3.10405
0.188 0.00802123 0.00572256 3.11817
0.1882 0.00753051 0.00790421 3.12699
0.1884 -0.00580632 -0.00872742 3.1121
0.1886 -0.00411669 0.00253086 3.12064
0.1888 0.0112044 0.0159797 3.12934
0.189 0.0133743 0.0184044 3.1537
0.1892 -0.0126781 0.00161307 3.15289
0.1894 0.00989756 0.00544654 3.1794
0.1896 -0.0101944 -0.0102067 3.17272
0.1898 0.0116309 -0.00298827 3.19233
0.19 -0.0140249 0.0097917 3.18039
0.1902 -0.00588969 -0.00578133 3.18881
0.1904 0.00918133 -0.00298631 3.20161
0.1906 -0.0170699 -0.0190655 3.19185
0.1908 0.00146124 0.015156 3.22027
0.191 0.0109179 0.00925798 3.24354
0.1912 -0.0245607 -0.0204238 3.21539
0.1914 0.0138529 0.0321338 3.25487
0.1916 -0.00716581 -0.0120625 3.23998
0.1918 -0.00844485 -0.0037703 3.24022
0.192 0.0265131 0.0152327 3.27119
0.1922 -0.00664591 -0.00125907 3.26543
0.1924 -0.0019896 0.000245101 3.27306
0.1926 -0.000180717 -0.000451934 3.27752
0.1928 0.0125466 0.00582475 3.28233
0.193 -0.00621519 -0.00493718 3.27695
0.1932 0.001033 0.00424863 3.28775
0.1934 0.0069506 0.00452899 3.30035
0.1936 0.00568415 -0.0145462 3.28082
0.1938 0.00274468 8.46974e-05 3.29482
0.194 -0.0178345 -0.00119754 3.29794
0.1942 0.0164636 0.0129072 3.32571
0.1944 -0.0274485 -0.026749 3.3083
0.1946 0.0115542 0.0240691 3.34653
0.1948 -0.018868 0.00313451 3.33034
0.195 0.00849681 -0.0114966 3.34183
0.1952 0.0313382 0.0271525 3.34272
0.1954 -0.0359946 -0.0170828 3.31743
0.1956 0.0136966 0.00573419 3.33149
0.1958 -0.00521448 -0.0095061 3.33718
0.196 -0.00431024 -0.00233737 3.36317
0.1962 0.0168658 0.019185 3.38566
0.1964 -0.0178393 -0.00094365 3.38484
0.1966 0.0162983 0.0323345 3.42047
0.1968 -0.00139317 -0.0245193 3.40487
0.197 0.0181497 0.00945442 3.42586
0.1972 -0.0112736 0.00247229 3.43433
0.1974 -0.0163649 -0.00504585 3.43458
0.1976 0.00157246 0.00250349 3.45815
0.1978 -0.00178538 -0.0139752 3.46603
0.198 0.0207042 0.0234533 3.47961
0.1982 -0.0141481 -0.0105581 3.4659
0.1984 -0.00112974 -2.77811e-05 3.46299
0.1986 0.00914213 -0.00183176 3.48122
0.1988 0.00251857 -0.00315482 3.48233
0.199 0.00324515 0.0154021 3.48326
0.1992 -0.00528734 -0.00943317 3.4936
0.1994 -0.00557036 -0.0106001 3.51483
0.1996 0.00462075 0.00129571 3.52173
0.1998 -0.00238003 -0.000447784 3.50746
0.2 0.0136868 -0.00382068 3.51342