File: Tensile Tests/NiCoCrFe/Z Direction PKA Tensile Test/NiCoCrFe_Tensile_5KeV.def1.txt
# Fix print output for fix def1
1.77638e-16 0.0153759 0.0138356 0.00992825
0.0002 -0.00578968 -0.00956015 0.02948
0.0004 0.0131217 0.01175 0.064727
0.0006 -0.0130431 -0.0128871 0.0783792
0.0008 -0.00143363 0.0154202 0.115834
0.001 -0.0108345 -0.0147461 0.127546
0.0012 0.0211655 0.0158413 0.171492
0.0014 -0.00759067 0.00340124 0.186992
0.0016 0.00164465 0.0105261 0.218378
0.0018 -0.00670232 -0.0180125 0.231628
0.002 0.0215817 0.0122745 0.287894
0.0022 -0.0193353 0.00211861 0.287525
0.0024 -0.00161452 0.00693383 0.326113
0.0026 0.0122024 -0.00346095 0.362787
0.0028 -0.00136303 -0.00631536 0.37474
0.003 0.0128501 0.0157498 0.406809
0.0032 -0.028104 -0.0229174 0.412197
0.0034 0.0158078 0.0184044 0.470256
0.0036 -0.00238094 -0.0180413 0.47597
0.0038 0.0277365 0.0280785 0.524925
0.004 -0.0206007 -0.00824126 0.529264
0.0042 0.00410358 -0.00315905 0.558095
0.0044 -0.00470392 -0.00848336 0.58245
0.0046 -0.010356 -0.00685335 0.607109
0.0048 0.0208081 0.0211369 0.65858
0.005 -0.0111962 -0.0115344 0.657515
0.0052 0.0213518 0.0106743 0.70868
0.0054 -0.0108968 -0.017445 0.712121
0.0056 0.0010572 -0.00462985 0.747031
0.0058 -0.00607491 0.00411018 0.777778
0.006 0.00854628 -0.00161802 0.808343
0.0062 -0.0122043 -0.00681013 0.828985
0.0064 0.00211065 0.0103038 0.859056
0.0066 0.00626845 0.00165309 0.887583
0.0068 -0.000753462 0.000524028 0.90793
0.007 0.00162418 0.000791072 0.944549
0.0072 -0.00482081 -0.0140922 0.948385
0.0074 0.0162106 0.00978543 0.994961
0.0076 0.000838929 0.00064265 1.01097
0.0078 -0.00145866 0.000946949 1.03884
0.008 -0.00917674 -0.00135806 1.06457
0.0082 0.00854391 0.00609157 1.09929
0.0084 -0.0151882 -0.0145407 1.10437
0.0086 0.0090972 0.00775133 1.15271
0.0088 0.00574581 0.00179545 1.17996
0.009 0.00582324 0.0098117 1.21421
0.0092 -0.00492099 -0.00683321 1.22528
0.0094 0.0014972 0.00442579 1.25747
0.0096 0.00589515 0.00999831 1.29112
0.0098 -0.0142733 -0.0251065 1.29933
0.01 0.00574109 0.0171464 1.34672
0.0102 6.73761e-05 0.00198823 1.36167
0.0104 0.00341396 0.00996663 1.39517
0.0106 -0.0119784 -0.0193941 1.40455
0.0108 0.0168992 0.00587915 1.44652
0.011 -0.0176372 -0.0133162 1.45789
0.0112 0.00915527 0.0110249 1.50354
0.0114 -0.00927564 -0.00724788 1.52134
0.0116 0.00765809 -0.00420608 1.55123
0.0118 0.00188507 0.00658952 1.58268
0.012 -0.00167769 0.00426897 1.60602
0.0122 -0.000156444 0.00402214 1.62604
0.0124 0.00219683 -0.0108105 1.6513
0.0126 -0.00921691 0.00268781 1.6753
0.0128 0.000417052 0.00109015 1.70846
0.013 0.0145525 0.00703795 1.74695
0.0132 -0.0135828 -0.0118571 1.74866
0.0134 0.00977405 0.00616871 1.7943
0.0136 -0.000718064 -0.00392923 1.81381
0.0138 -8.20815e-05 -0.00116054 1.83723
0.014 0.000738448 0.00439204 1.86689
0.0142 -0.00328951 -0.00326091 1.89205
0.0144 0.00269374 0.00465187 1.92411
0.0146 0.00368727 -0.0046439 1.94617
0.0148 0.00715296 0.00675759 1.97994
0.015 0.00513836 0.00844034 1.99549
0.0152 -0.00271242 -0.0018773 2.02646
0.0154 0.0120481 0.00538062 2.05677
0.0156 -0.00649456 -0.00716498 2.0691
0.0158 0.0107042 0.00952939 2.10753
0.016 0.00417471 0.00576668 2.12931
0.0162 0.00232755 -0.000542997 2.15282
0.0164 0.0162558 0.0149624 2.19697
0.0166 0.0169546 0.0170815 2.21782
0.0168 -0.0276226 -0.0166578 2.21656
0.017 0.00130911 0.006466 2.25687
0.0172 0.00452336 0.00112576 2.27923
0.0174 -0.0111593 -0.00621323 2.29947
0.0176 0.00726493 0.0119796 2.34362
0.0178 0.010452 -0.00515919 2.36798
0.018 -0.00505495 -0.00879885 2.38491
0.0182 0.0078928 0.00600639 2.42245
0.0184 0.00128149 0.00473658 2.44674
0.0186 -0.0122475 -0.0167172 2.45602
0.0188 0.0153414 0.00920597 2.49042
0.019 -0.00483156 -0.00887733 2.51611
0.0192 -0.00179142 0.0116414 2.54273
0.0194 -0.000747033 0.000583159 2.56847
0.0196 0.00476867 -0.0117127 2.59491
0.0198 0.0061291 0.016601 2.63262
0.02 -0.00955262 -0.00270009 2.64206
0.0202 0.000905483 0.00203922 2.66893
0.0204 0.011874 0.00356629 2.70498
0.0206 -0.00348749 -0.00103883 2.71893
0.0208 -0.00615247 -0.00380282 2.74674
0.021 -3.45271e-05 -0.00224808 2.77344
0.0212 0.02002 0.0143625 2.81553
0.0214 -0.0213067 -0.0219751 2.81216
0.0216 0.015435 0.0181091 2.8551
0.0218 -0.0223401 -0.00878843 2.86907
0.022 0.0108208 0.00196123 2.9086
0.0222 0.00270448 -0.00748931 2.92117
0.0224 -0.00509798 0.00118468 2.95836
0.0226 0.00249661 0.00855369 2.98668
0.0228 0.000656252 -0.00476704 3.00202
0.023 0.024672 0.0156883 3.04759
0.0232 -0.0195637 -0.0126358 3.04671
0.0234 0.01752 0.00984177 3.09363
0.0236 -0.00685159 -0.00766112 3.10058
0.0238 0.00364908 0.00883526 3.12745
0.024 -0.00437912 0.00253372 3.14826
0.0242 -0.000411129 0.00386219 3.18169
0.0244 -0.00156805 -0.00702034 3.19386
0.0246 0.00102947 0.00602212 3.23342
0.0248 0.0117644 0.0194789 3.26113
0.025 -0.022565 -0.00757854 3.2727
0.0252 0.0112766 0.0046124 3.30917
0.0254 0.00125841 -0.00752885 3.3257
0.0256 -0.00209584 0.00169533 3.3519
0.0258 0.00343057 0.0129953 3.38648
0.026 -0.0146089 -0.00175356 3.40028
0.0262 0.0124646 0.00925602 3.44613
0.0264 0.011187 2.99918e-05 3.45163
0.0266 -0.00274304 -0.00440841 3.48041
0.0268 0.00822476 0.0199733 3.50952
0.027 -0.0151009 -0.0138324 3.5153
0.0272 0.00409227 0.00363683 3.5525
0.0274 0.0174383 0.00165196 3.58873
0.0276 -0.00423339 0.00228083 3.60895
0.0278 0.00293118 0.00723239 3.62973
0.028 -0.0115719 -0.0141038 3.64383
0.0282 0.0126498 0.0100715 3.68647
0.0284 -0.00080581 -0.0109354 3.70501
0.0286 0.0171507 0.0177671 3.74001
0.0288 -0.000161995 0.00744619 3.75864
0.029 -0.00527173 -0.0039323 3.78011
0.0292 0.00801764 0.00959766 3.80327
0.0294 -0.0118726 -0.00914549 3.82124
0.0296 0.021018 0.023776 3.86659
0.0298 -0.0289176 -0.0253434 3.85396
0.03 -0.00341274 -0.00369197 3.89724
0.0302 0.0136975 0.0190082 3.93482
0.0304 -0.0217194 -0.0154498 3.94227
0.0306 0.0157749 0.0101449 3.97904
0.0308 -0.00420678 -0.01248 3.99919
0.031 0.00609867 0.012267 4.02559
0.0312 -0.0152389 -0.0204335 4.0305
0.0314 -0.0035867 -0.000326453 4.06109
0.0316 0.0220525 0.0129818 4.10123
0.0318 -0.00566459 -0.00971311 4.10959
0.032 0.00630135 0.0148355 4.14074
0.0322 0.00423596 0.00186719 4.16651
0.0324 -0.00122591 0.00198493 4.18662
0.0326 -0.00121732 0.000290293 4.2063
0.0328 0.000373412 0.00845688 4.24064
0.033 -0.013822 -0.0164436 4.24697
0.0332 -0.00855688 -0.0104291 4.27246
0.0334 -0.00443053 -0.00542509 4.29971
0.0336 0.0152416 0.0236827 4.34645
0.0338 -0.00119995 0.00674735 4.35625
0.034 -0.00139368 -0.00899185 4.37859
0.0342 0.0130866 0.0200258 4.41671
0.0344 -0.0145055 -0.0138612 4.41389
0.0346 0.0258332 0.0145044 4.46246
0.0348 -0.00868736 -0.00472841 4.46782
0.035 0.00609721 0.00633715 4.50284
0.0352 0.0040561 0.0161935 4.52808
0.0354 0.00157606 0.00753637 4.54881
0.0356 -0.0137711 -0.0103818 4.55999
0.0358 0.00415408 0.00294133 4.59046
0.036 -0.00812015 -0.00707235 4.61763
0.0362 -0.0042641 -0.00260505 4.63371
0.0364 -0.0012007 0.00226219 4.66366
0.0366 -0.00102644 -0.0014789 4.68156
0.0368 0.00513504 0.00451723 4.71637
0.037 0.0040106 0.00616535 4.73239
0.0372 0.0131964 0.0154573 4.76712
0.0374 0.00526215 0.00543133 4.78074
0.0376 0.00356097 0.0107962 4.80755
0.0378 0.00253939 -0.00334915 4.82165
0.038 0.0120762 0.0101142 4.85931
0.0382 -0.00302117 -0.0014085 4.87291
0.0384 -0.00565509 0.0019661 4.89196
0.0386 0.00847317 0.0125447 4.92435
0.0388 -0.00357395 -0.0175582 4.9336
0.039 0.00701022 0.000770315 4.97161
0.0392 0.0074824 0.0251988 5.00055
0.0394 -0.00935409 -0.00490818 5.0051
0.0396 0.020383 0.00958458 5.04603
0.0398 0.000604302 0.00111732 5.06031
0.04 -0.00415557 -0.0123675 5.07586
0.0402 0.0111568 0.0120957 5.11223
0.0404 -0.00520047 0.00645929 5.13771
0.0406 0.0158076 0.0157372 5.15564
0.0408 0.0150596 -0.00150201 5.1895
0.041 -0.00745011 -0.0189431 5.18746
0.0412 -1.97394e-06 0.0112974 5.22218
0.0414 -0.00398791 0.00462002 5.24207
0.0416 0.0161459 0.0146698 5.27563
0.0418 -0.0107418 -0.0155478 5.28481
0.042 0.0183315 0.00388183 5.32272
0.0422 -0.0229508 -0.0186326 5.31799
0.0424 -0.0014928 0.019213 5.36988
0.0426 0.00991938 0.0102209 5.39239
0.0428 -0.00759026 -0.0195636 5.39968
0.043 0.0073014 -0.00448363 5.42105
0.0432 -0.0118029 -0.00043834 5.44738
0.0434 0.00250198 0.0165887 5.47951
0.0436 0.00754163 0.00161896 5.49926
0.0438 0.00962235 -0.00273717 5.51952
0.044 0.00470374 0.00697291 5.54864
0.0442 -0.00352215 0.00145838 5.5645
0.0444 -0.0023145 0.00932921 5.58988
0.0446 0.0064932 -0.0119269 5.60831
0.0448 0.0283658 0.0218049 5.64398
0.045 -0.0328768 -0.025361 5.63955
0.0452 0.0239234 0.025239 5.69025
0.0454 -0.0113421 -0.000993788 5.69474
0.0456 -0.00432605 -0.0136914 5.72009
0.0458 0.0155369 0.011657 5.75517
0.046 -0.00777997 -0.00813345 5.75968
0.0462 -0.00222137 0.00405822 5.79309
0.0464 0.00601572 0.0107586 5.80889
0.0466 -0.0125927 -0.017786 5.83028
0.0468 0.0107596 0.00780807 5.86183
0.047 -0.0218704 -0.0166133 5.86824
0.0472 0.00439156 0.0114957 5.90642
0.0474 -0.0157662 -0.0153224 5.91832
0.0476 0.00626026 0.00273361 5.94657
0.0478 -0.00164796 0.00237743 5.97089
0.048 -0.0100812 -0.00157847 5.98463
0.0482 0.0160972 0.0154874 6.02774
0.0484 -0.0177369 -0.0136727 6.02614
0.0486 0.0124162 0.0132382 6.06148
0.0488 0.012356 0.0123317 6.08974
0.049 0.00218506 -0.00514365 6.09428
0.0492 0.000479732 -0.00504041 6.12959
0.0494 -0.0131424 -0.0125406 6.13752
0.0496 0.0181249 0.0113873 6.17759
0.0498 -0.00157712 -0.00155904 6.18807
0.05 0.000417038 0.00454545 6.21868
0.0502 0.0139229 0.00571156 6.2414
0.0504 -0.0185841 -0.0087629 6.25148
0.0506 0.00174564 0.00246121 6.28221
0.0508 -0.016764 -0.00939971 6.29913
0.051 0.0159781 0.00895972 6.33637
0.0512 0.000169781 -0.00560871 6.34116
0.0514 -0.0212844 -0.0156002 6.35934
0.0516 0.0152339 0.0264699 6.405
0.0518 -0.0226085 -0.0194661 6.40178
0.052 0.00118562 -0.00488006 6.42744
0.0522 0.00435679 0.00513752 6.46775
0.0524 -0.00873724 -0.013265 6.47638
0.0526 0.0136806 0.0183033 6.5097
0.0528 -0.00476963 0.00150097 6.52471
0.053 0.00287525 0.00325646 6.54727
0.0532 -0.00104534 -0.0124747 6.56076
0.0534 0.00819413 0.00739414 6.59453
0.0536 0.0111351 0.0188128 6.6213
0.0538 -0.0224221 -0.0152185 6.61408
0.054 0.0130325 0.0101956 6.66873
0.0542 0.0026311 -0.0112583 6.67172
0.0544 -0.0111482 -0.00682489 6.69274
0.0546 0.00573593 0.00936485 6.72428
0.0548 -0.00500667 -0.000992482 6.73991
0.055 0.00833081 0.00793735 6.75851
0.0552 -0.0026719 -0.00205784 6.78672
0.0554 0.00847782 0.0102875 6.80447
0.0556 -0.00961497 -0.00437793 6.82106
0.0558 0.0183724 0.0144784 6.86226
0.056 -0.0069032 -0.0112717 6.85779
0.0562 0.0113482 0.00924937 6.89763
0.0564 0.0108028 0.00928525 6.92642
0.0566 0.00801729 0.0125622 6.94093
0.0568 -0.0188465 -0.0161749 6.94885
0.057 0.010251 0.00051991 6.98663
0.0572 0.00203849 -0.00883214 6.99886
0.0574 -0.000401493 0.00189716 7.02021
0.0576 -0.00265301 0.00792669 7.05194
0.0578 -0.00921839 -0.0103477 7.0621
0.058 0.00289987 0.00401471 7.08605
0.0582 -0.00140996 -0.00517241 7.10734
0.0584 0.0103003 0.00309061 7.12795
0.0586 -0.0313536 -0.0296464 7.14106
0.0588 0.00454808 0.00962328 7.18529
0.059 -0.00940421 -0.00614415 7.20035
0.0592 0.00196576 -0.00498255 7.2245
0.0594 0.00742454 0.0129676 7.24779
0.0596 -0.00415366 -0.00532105 7.26821
0.0598 -0.00012191 0.00249994 7.28511
0.06 0.00137994 0.00123229 7.31389
0.0602 -0.00886597 -0.0144034 7.33957
0.0604 -0.0103437 -0.0067789 7.34945
0.0606 0.0108653 0.0122072 7.38113
0.0608 -0.0105707 0.00143485 7.39933
0.061 -0.018674 -0.0114917 7.40875
0.0612 0.0033887 0.00186396 7.44417
0.0614 0.0021889 -0.00687734 7.47025
0.0616 0.0127856 0.00462663 7.49751
0.0618 -0.0145636 -0.00775967 7.50625
0.062 0.0247378 0.0283007 7.54539
0.0622 -0.0281749 -0.0217317 7.53816
0.0624 0.00795953 0.00903178 7.58228
0.0626 -0.000520986 0.00329984 7.6001
0.0628 -0.0150325 -0.0184759 7.60842
0.063 0.0226405 0.0217847 7.65233
0.0632 -0.0420447 -0.0411202 7.63446
0.0634 0.0262597 0.0282895 7.69708
0.0636 -0.00323557 -0.00816512 7.69969
0.0638 -0.0239711 -0.0254729 7.70583
0.064 0.0311637 0.035557 7.77009
0.0642 -0.0185862 -0.0171558 7.75897
0.0644 0.00486878 0.00919928 7.79894
0.0646 -0.0068969 0.00449526 7.81273
0.0648 0.010667 0.01228 7.83962
0.065 -0.0113442 -0.00932757 7.8534
0.0652 -0.000200496 -0.00778558 7.87906
0.0654 0.00963896 0.0111454 7.90942
0.0656 -0.0102477 -0.00770354 7.91228
0.0658 -0.0132267 -0.00408207 7.94267
0.066 0.00775138 0.0136668 7.97581
0.0662 0.000199702 -0.00325801 7.99142
0.0664 0.0154981 0.00571076 8.01298
0.0666 -0.00213054 -8.64567e-05 8.04033
0.0668 -0.0215779 -0.0106718 8.04236
0.067 -0.0015877 0.00447529 8.07732
0.0672 0.00281114 -0.00521397 8.10178
0.0674 0.0212608 0.0082144 8.11597
0.0676 -0.00851642 -0.00878961 8.13107
0.0678 0.0143633 0.0131807 8.16717
0.068 -0.017928 -0.00846154 8.17621
0.0682 0.00163884 0.0089269 8.20302
0.0684 0.00481285 0.00102463 8.22395
0.0686 -0.0192051 -0.0323784 8.23932
0.0688 0.0143 0.00833667 8.27121
0.069 -0.0136117 -0.0126047 8.28348
0.0692 0.00787348 0.0112438 8.31678
0.0694 -0.0138944 -0.0106695 8.32615
0.0696 0.00795335 0.00783185 8.36267
0.0698 0.014746 0.0117645 8.38438
0.07 -0.0162945 -0.0166281 8.38494
0.0702 0.0178934 0.0130981 8.43072
0.0704 -0.00974926 -0.0101891 8.43528
0.0706 0.00882042 0.0142515 8.46837
0.0708 -0.00695182 0.00393047 8.48663
0.071 -0.00930593 -0.0180441 8.50195
0.0712 0.00236114 -0.00100622 8.53164
0.0714 -0.0152028 -0.0130183 8.54705
0.0716 0.00224337 0.00410603 8.57576
0.0718 -0.00484536 -0.0130621 8.5878
0.072 -0.00422397 0.00481109 8.61676
0.0722 0.0057893 0.0112419 8.64565
0.0724 -0.00556329 -0.00540771 8.66344
0.0726 0.0260322 0.0203549 8.69428
0.0728 -0.0207854 -0.0114694 8.695
0.073 -0.00388288 -0.00141004 8.72883
0.0732 0.00792992 0.0116566 8.7509
0.0734 -0.000519754 -0.00589254 8.76605
0.0736 0.0244661 0.0186676 8.80122
0.0738 -0.015032 -0.0179 8.81128
0.074 0.0137186 0.0126622 8.84493
0.0742 0.00175299 0.0119456 8.8607
0.0744 -0.0198709 -0.0136483 8.8681
0.0746 0.0116972 0.00583618 8.91118
0.0748 0.00276559 -0.00579274 8.91399
0.075 -0.0013012 -0.00287987 8.95079
0.0752 0.0104484 0.016054 8.97801
0.0754 -0.015973 -0.0122894 8.9816
0.0756 0.0138994 0.00624437 9.01758
0.0758 0.00962472 0.00519065 9.0393
0.076 -0.005562 -0.00687618 9.05385
0.0762 0.0081628 0.0194319 9.08374
0.0764 -0.00971903 0.000628961 9.09967
0.0766 0.00352519 -0.00223136 9.12267
0.0768 -0.0166173 -0.0213195 9.13088
0.077 0.00689437 -0.000838108 9.17012
0.0772 0.00566663 0.00242543 9.19993
0.0774 -0.00385135 -0.00506224 9.2048
0.0776 0.0137839 0.0128095 9.24132
0.0778 -0.00375372 -0.00174169 9.25335
0.078 0.00243506 -0.00286442 9.26717
0.0782 -0.00107573 -0.0106191 9.30229
0.0784 0.00116775 -0.0065975 9.31603
0.0786 0.0133564 0.013981 9.34878
0.0788 -0.0258006 -0.0137423 9.35568
0.079 0.00382707 0.00493169 9.38168
0.0792 0.00563151 0.014056 9.4167
0.0794 0.00286296 -0.000993216 9.42897
0.0796 -0.0132153 -0.013196 9.44501
0.0798 0.0108627 0.0126196 9.48509
0.08 -0.00853208 0.00152391 9.49408
0.0802 -0.010287 -0.0108986 9.50651
0.0804 0.0142625 0.0111569 9.55023
0.0806 0.000570085 -0.0082196 9.55915
0.0808 -0.00312225 -0.000390363 9.58315
0.081 0.00732071 0.0104145 9.60688
0.0812 -0.0182657 -0.00901536 9.61723
0.0814 -0.0124958 -0.0115481 9.64417
0.0816 0.0163839 0.0136876 9.68443
0.0818 -0.0011975 -0.00990059 9.69297
0.082 0.0114961 0.00240564 9.72939
0.0822 -0.00837553 -0.0134931 9.73893
0.0824 0.022377 0.0263326 9.77332
0.0826 -0.00422873 -0.00656754 9.78578
0.0828 -0.00516093 -0.00988497 9.80319
0.083 0.0233159 0.027962 9.8406
0.0832 -0.0132806 -0.013815 9.85191
0.0834 0.0222402 0.0142808 9.88417
0.0836 0.00618072 0.00381671 9.8976
0.0838 -0.0115831 -0.012705 9.90866
0.084 0.0134485 0.0176794 9.9423
0.0842 -0.00648442 -0.000689481 9.9604
0.0844 -0.0107668 -0.0192695 9.97754
0.0846 0.0246512 0.0170611 10.0137
0.0848 -0.0105333 -0.00894998 10.021
0.085 -0.00290929 0.000615803 10.047
0.0852 0.00678991 0.00939642 10.0713
0.0854 -0.00295591 -0.0023598 10.0899
0.0856 -0.00468381 -0.00585386 10.1132
0.0858 0.0329923 0.0292578 10.1501
0.086 -0.00395089 0.00253835 10.1634
0.0862 0.00247361 0.00948215 10.1835
0.0864 0.0146109 0.0196373 10.2202
0.0866 -0.0157353 -0.0174582 10.2245
0.0868 0.00161572 -0.00574873 10.2456
0.087 -0.000569733 -0.00896039 10.2735
0.0872 0.0149967 0.00956162 10.2985
0.0874 -0.00267361 0.00866507 10.3171
0.0876 -0.0107039 -0.00738725 10.3374
0.0878 -0.000140248 -0.00115503 10.3574
0.088 -0.00113214 -0.00774377 10.3831
0.0882 -0.00589685 -0.00898405 10.4001
0.0884 0.00371239 0.00590789 10.4306
0.0886 -0.00991621 -0.0125565 10.4433
0.0888 -0.00345138 0.0015641 10.4649
0.089 -0.00959212 -0.00674007 10.494
0.0892 0.00460803 0.00341906 10.516
0.0894 -0.0104516 -0.0106453 10.5356
0.0896 0.000542121 -0.00264114 10.5563
0.0898 0.0139689 0.00541295 10.5919
0.09 0.00656331 0.00363194 10.6071
0.0902 0.0146059 0.0199658 10.6363
0.0904 -0.0288591 -0.016525 10.6396
0.0906 0.00474353 0.00798394 10.6807
0.0908 0.0110047 0.0031726 10.703
0.091 -0.0106933 -0.0144435 10.7153
0.0912 0.0183416 0.011608 10.7412
0.0914 -0.0249941 -0.0233314 10.7518
0.0916 0.00681832 0.00946898 10.791
0.0918 -0.00219019 0.00861587 10.8137
0.092 -0.0246069 -0.0301716 10.8207
0.0922 0.0108461 0.0153582 10.8656
0.0924 -0.00814466 -0.00944981 10.8792
0.0926 0.0062228 -0.00375434 10.8933
0.0928 -0.00642994 0.00393548 10.9226
0.093 7.22676e-05 -0.00666403 10.9441
0.0932 0.00842913 0.0124408 10.969
0.0934 -0.00982229 -0.00921798 10.991
0.0936 -0.0152516 -0.0214252 11.0057
0.0938 0.0150103 0.0187376 11.0488
0.094 1.92153e-05 0.00796842 11.0665
0.0942 -0.00669126 -0.00808377 11.0757
0.0944 -0.0100975 -0.0156922 11.0932
0.0946 0.00772185 0.00864374 11.1314
0.0948 0.0052453 -0.00368962 11.1445
0.095 -0.00717298 0.00496148 11.1801
0.0952 -0.00718291 -0.00207597 11.1923
0.0954 -0.00352979 -0.00533945 11.2123
0.0956 0.0176359 0.0098821 11.2441
0.0958 -0.00840159 -0.0104745 11.2567
0.096 0.000488386 0.0037304 11.2865
0.0962 -0.000949373 0.000399916 11.302
0.0964 -0.0314554 -0.0240293 11.3171
0.0966 0.0223436 0.0254479 11.364
0.0968 -0.0104443 -0.0133183 11.3737
0.097 -0.0110573 -0.0149838 11.3954
0.0972 0.0365209 0.0322976 11.4357
0.0974 -0.0296244 -0.0388551 11.4279
0.0976 0.0019897 0.00469396 11.4775
0.0978 0.00764067 0.0122549 11.4904
0.098 -0.0171834 -0.0107704 11.5143
0.0982 0.0162642 0.0246718 11.5438
0.0984 -0.00223504 -0.00156783 11.554
0.0986 -0.01432 -0.0138067 11.5757
0.0988 0.0166935 0.00753872 11.605
0.099 -0.0178177 -0.0187849 11.619
0.0992 -0.0261629 -0.0286115 11.6343
0.0994 0.0411945 0.0327923 11.6924
0.0996 -0.0222529 -0.025684 11.6873
0.0998 0.00255187 0.000328083 11.723
0.1 0.021172 0.0240132 11.7651
0.1002 -0.0330329 -0.0340345 11.749
0.1004 0.0110532 0.0048281 11.7938
0.1006 0.0239195 0.0150098 11.8225
0.1008 0.000261314 -0.0123108 11.833
0.101 0.0134138 0.00854062 11.8643
0.1012 -0.00188974 0.00371326 11.8913
0.1014 -0.013338 -0.00815191 11.9008
0.1016 0.0190486 0.0178117 11.9336
0.1018 -0.00668058 -0.00885561 11.9543
0.102 0.00827404 0.00453737 11.9818
0.1022 0.0132349 0.0100886 12.0032
0.1024 -0.00754718 -0.00592168 12.0183
0.1026 -0.00653397 -0.0167812 12.0441
0.1028 0.00124148 0.000733903 12.068
0.103 -0.000584106 0.0053483 12.0932
0.1032 -0.0195653 -0.0159926 12.1092
0.1034 0.0102911 0.0102324 12.1346
0.1036 -0.0101133 -0.00460817 12.1691
0.1038 -0.000781205 0.00348339 12.1854
0.104 0.0032705 0.00091744 12.2112
0.1042 -0.00191282 -0.0102897 12.2307
0.1044 -0.00369967 -0.00944599 12.2509
0.1046 0.0118571 0.00650275 12.2735
0.1048 -0.00420229 -0.00553482 12.3023
0.105 0.0119248 0.0153352 12.3265
0.1052 0.00846763 0.0162176 12.3654
0.1054 -0.0113941 0.00485695 12.3657
0.1056 -0.000109005 0.00210215 12.3959
0.1058 -0.00503494 -0.0119886 12.4141
0.106 0.00352418 0.000623856 12.4438
0.1062 0.00627717 0.00155744 12.4655
0.1064 -0.0155548 -0.0203736 12.4738
0.1066 0.0241574 0.0251266 12.5224
0.1068 0.00459475 0.00954756 12.5283
0.107 -0.0372534 -0.0372094 12.5416
0.1072 0.0190919 0.0201155 12.5843
0.1074 0.000133219 0.00282618 12.5998
0.1076 0.00197503 0.00159644 12.6304
0.1078 -0.00709185 -0.000313942 12.6438
0.108 -0.0225389 -0.0262152 12.6599
0.1082 0.030143 0.0204825 12.6995
0.1084 -0.0157316 -0.0132171 12.7137
0.1086 -0.0194575 -0.0165653 12.7328
0.1088 0.0104311 0.0135503 12.7676
0.109 0.00487599 0.00733363 12.7912
0.1092 0.000613037 0.00394505 12.815
0.1094 -0.00655774 -0.0108294 12.8252
0.1096 -0.00916527 -0.0149353 12.8518
0.1098 0.0338746 0.033455 12.9006
0.11 -0.0158619 -0.00643314 12.9019
0.1102 -0.0160571 -0.0129071 12.924
0.1104 0.0207527 0.0170505 12.9599
0.1106 0.00413227 -0.00254466 12.9759
0.1108 -0.00178254 0.000832324 12.9963
0.111 0.00852128 0.0091775 13.0279
0.1112 -0.000802958 -0.00495887 13.0465
0.1114 -0.007398 0.00102246 13.0675
0.1116 0.00372126 0.0103113 13.0947
0.1118 -0.0169291 -0.0178002 13.107
0.112 -0.00369722 -0.00961478 13.1439
0.1122 0.00943145 0.00654885 13.1674
0.1124 0.000480837 0.000629138 13.1802
0.1126 -0.0072537 -0.00950218 13.2137
0.1128 -0.0146713 -0.004106 13.223
0.113 0.0018308 0.00383471 13.2663
0.1132 0.00863248 0.0117832 13.2895
0.1134 -0.0171491 -0.0212151 13.2969
0.1136 0.00645 0.00405048 13.3285
0.1138 0.0265574 0.0227275 13.3676
0.114 -0.0237713 -0.0261685 13.3662
0.1142 -0.01031 -0.0108148 13.395
0.1144 0.0143974 0.018505 13.4327
0.1146 -0.0152373 -0.00604312 13.4437
0.1148 0.00414561 -0.00186229 13.4723
0.115 -0.0102108 -0.00833099 13.498
0.1152 0.00291611 0.00858127 13.5359
0.1154 -0.00497541 -0.00198029 13.5354
0.1156 -0.0151417 -0.0123875 13.5644
0.1158 0.00650767 0.00330705 13.5948
0.116 -0.00186453 -0.00687237 13.6217
0.1162 -0.0104186 -0.0174602 13.6335
0.1164 0.00108347 -0.00131423 13.6692
0.1166 -0.0158126 -0.0153327 13.6854
0.1168 -0.00181791 -0.000142512 13.714
0.117 0.010862 0.0110656 13.7378
0.1172 -0.00154194 -0.00730176 13.7636
0.1174 -0.00972015 -0.0135014 13.7815
0.1176 0.0185694 0.0169928 13.8213
0.1178 -0.000108389 -0.00374587 13.834
0.118 -0.006532 -0.00750599 13.855
0.1182 0.0117164 0.011881 13.8911
0.1184 -0.00347948 -0.00417386 13.8996
0.1186 0.00578447 -0.000531079 13.9327
0.1188 -0.00310382 -0.00104708 13.9494
0.119 -0.00831341 -0.00343574 13.9734
0.1192 0.0128164 0.0119196 14.0122
0.1194 0.0023402 -0.00287323 14.02
0.1196 -0.0101856 -0.0112999 14.0515
0.1198 0.0065332 0.0014718 14.0795
0.12 -0.00576269 -0.00751134 14.0973
0.1202 -0.00934729 -0.00622117 14.1167
0.1204 0.0145844 0.0183629 14.1515
0.1206 0.00274575 0.00341458 14.1731
0.1208 -0.0219893 -0.0156572 14.1889
0.121 0.011568 0.0151275 14.227
0.1212 -0.00864082 -0.00689358 14.2401
0.1214 0.000885304 0.000507833 14.2623
0.1216 0.00500839 -0.00487143 14.2887
0.1218 0.00599879 0.00750029 14.3177
0.122 0.0150105 0.00851867 14.3485
0.1222 -0.00617722 -0.00648644 14.349
0.1224 0.00325508 0.00122701 14.3913
0.1226 -0.00588671 -0.00862363 14.4031
0.1228 0.00999347 0.0097685 14.4339
0.123 -0.0127434 -0.00583775 14.4571
0.1232 0.0170807 0.0236434 14.4907
0.1234 -0.0159838 -0.0205909 14.4993
0.1236 -0.00727874 -0.00908065 14.5302
0.1238 0.0224157 0.0252741 14.5652
0.124 -0.0160696 -0.00983222 14.5704
0.1242 -0.0117507 -0.0115876 14.5967
0.1244 0.0176306 0.0141146 14.6261
0.1246 -0.00491486 -0.000691399 14.6427
0.1248 0.00385811 0.001625 14.6688
0.125 -0.0215498 -0.020669 14.6847
0.1252 -0.0204747 -0.0200167 14.7112
0.1254 0.0292376 0.0303811 14.7565
0.1256 -0.0253184 -0.0245889 14.7646
0.1258 -0.00849758 -0.00753857 14.7858
0.126 0.017455 0.0208242 14.8186
0.1262 -0.0220948 -0.0187168 14.8372
0.1264 0.0118335 0.0120708 14.8744
0.1266 0.00775696 0.0138925 14.8896
0.1268 -0.00990264 -0.00753169 14.9124
0.127 -0.00248145 0.00289051 14.9343
0.1272 0.0119443 0.00957485 14.9733
0.1274 0.0142436 0.0145654 14.9914
0.1276 -0.0144442 -0.0162121 15.0087
0.1278 0.0157676 0.00560187 15.0332
0.128 -0.0141986 -0.0110308 15.0629
0.1282 0.00475172 0.00225443 15.0836
0.1284 0.0124451 0.0109084 15.1119
0.1286 -0.0108357 -0.00883381 15.1338
0.1288 0.00607701 0.00862223 15.1558
0.129 -0.00118542 -0.00753039 15.1801
0.1292 0.008632 0.00887503 15.2076
0.1294 0.0131462 0.0137546 15.234
0.1296 -0.01762 -0.00965144 15.2426
0.1298 0.00669502 0.0135118 15.2844
0.13 0.0102687 0.00661224 15.2952
0.1302 -0.0118154 -0.0127762 15.3131
0.1304 0.0139936 0.013616 15.3484
0.1306 0.00130134 8.30218e-05 15.3736
0.1308 -0.00138501 0.000796789 15.3806
0.131 0.0116679 0.0141045 15.4258
0.1312 -0.0186335 -0.0194404 15.4238
0.1314 0.00347146 0.0109545 15.463
0.1316 0.00160351 0.00797634 15.4782
0.1318 -0.00754034 -0.00434889 15.4865
0.132 0.00188931 0.010059 15.5103
0.1322 0.00315747 0.0113333 15.5371
0.1324 -0.0222244 -0.0178728 15.5464
0.1326 0.00424492 0.0128064 15.57
0.1328 0.00309167 0.0139413 15.5926
0.133 -0.00652032 -0.00319132 15.5961
0.1332 -0.0149507 -0.0111892 15.6079
0.1334 0.00366884 0.00920943 15.6341
0.1336 0.00808008 0.013041 15.6534
0.1338 -0.0235463 -0.0141924 15.6514
0.134 0.00172872 0.0171972 15.6741
0.1342 -0.0110108 -0.005216 15.6722
0.1344 -0.0100111 0.00551896 15.6756
0.1346 0.00538662 0.0103795 15.6923
0.1348 -0.00449141 0.00585025 15.6886
0.135 -0.00116156 0.00512209 15.6986
0.1352 0.0119172 0.0184697 15.7046
0.1354 -0.0173004 -0.00371597 15.6878
0.1356 -0.0084532 0.00191766 15.6985
0.1358 0.00281534 0.0182727 15.7026
0.136 -0.0238328 -0.00663372 15.6915
0.1362 -0.0149554 0.00201378 15.6917
0.1364 -0.0191257 0.00318746 15.6665
0.1366 0.00417906 0.0246651 15.6564
0.1368 -0.0108045 0.0066621 15.6206
0.137 -0.0108601 -0.00300787 15.5789
0.1372 -0.000405656 0.0108843 15.5486
0.1374 -0.00645134 0.00504794 15.4863
0.1376 -0.017809 -0.0159439 15.4355
0.1378 0.0195704 0.0177612 15.381
0.138 0.0222534 0.0142546 15.3118
0.1382 -0.0110859 -0.00752983 15.2214
0.1384 0.00448622 0.01763 15.1388
0.1386 0.0269318 0.0387555 15.0554
0.1388 -0.0344384 -0.0241789 14.9147
0.139 -0.00715231 0.0189895 14.8168
0.1392 0.0181535 0.0368266 14.6827
0.1394 -0.0301278 -0.0259404 14.523
0.1396 -0.000285749 -0.00240713 14.3761
0.1398 0.0184309 0.0180193 14.1994
0.14 -0.0148286 -0.00436435 14.0175
0.1402 0.00891956 0.0186105 13.7939
0.1404 -0.0103125 0.00515764 13.5764
0.1406 0.00292386 -0.00102222 13.343
0.1408 0.00537232 0.0125952 13.087
0.141 -0.00395919 0.0069172 12.8101
0.1412 0.00150494 0.021353 12.5177
0.1414 -0.0149069 0.0215698 12.2116
0.1416 0.0233816 0.0181834 11.9056
0.1418 0.000729244 0.00820915 11.5731
0.142 0.00875047 0.0313859 11.2447
0.1422 0.00181272 0.0324786 10.8988
0.1424 0.00893728 0.0153232 10.5615
0.1426 0.0362743 0.022995 10.2449
0.1428 -0.000855446 0.0199576 9.91946
0.143 0.00544085 0.0165495 9.57272
0.1432 0.0168489 0.0278233 9.25164
0.1434 -0.00942692 0.0200354 8.91399
0.1436 0.0157177 0.0356551 8.60809
0.1438 0.00833159 0.0380808 8.25091
0.144 -0.00206817 0.0305224 7.92079
0.1442 -0.0106625 0.0257106 7.5667
0.1444 -0.0148569 0.0316406 7.24299
0.1446 -0.00710217 0.0257304 6.911
0.1448 -0.014743 0.00883916 6.58321
0.145 -0.00386713 0.0329306 6.29839
0.1452 -0.026982 0.0413473 5.98546
0.1454 -0.00859325 0.0331355 5.70751
0.1456 -0.0169449 0.0233522 5.43435
0.1458 -0.016277 0.0482477 5.18776
0.146 -0.0133769 0.0420921 4.93053
0.1462 -0.0186795 0.0218098 4.70727
0.1464 -0.00281044 0.0546839 4.49915
0.1466 -0.032184 0.0319031 4.27897
0.1468 -0.005842 0.00827063 4.08758
0.147 0.0109421 0.0257103 3.92577
0.1472 -0.0102357 0.016236 3.77583
0.1474 -0.00509259 0.0223773 3.63041
0.1476 0.000313613 0.00589897 3.51147
0.1478 -0.0161315 -0.00739747 3.40259
0.148 0.00830839 0.0297506 3.3461
0.1482 -0.012223 0.0214471 3.26923
0.1484 -0.00710111 -0.00653011 3.18787
0.1486 0.0226366 0.0143559 3.15143
0.1488 -0.0059939 -0.0113019 3.05946
0.149 0.0030388 0.00366082 3.02604
0.1492 8.06765e-06 -0.000899932 2.98642
0.1494 0.0103482 -0.00614474 2.95243
0.1496 0.00631545 0.00719141 2.93375
0.1498 -0.0132074 -0.00343794 2.87724
0.15 0.00933613 -0.0117008 2.87369
0.1502 0.0162773 0.0320665 2.85639
0.1504 -0.0100074 -0.0262768 2.82463
0.1506 0.00868901 0.0291835 2.83136
0.1508 -0.00770288 -0.00533395 2.79817
0.151 0.00352741 0.00332427 2.78213
0.1512 -0.0032729 0.00153694 2.75355
0.1514 -0.004966 -0.0133628 2.72971
0.1516 0.0218798 0.0153062 2.74942
0.1518 -0.0405347 -0.0206206 2.71823
0.152 0.0532067 0.0497983 2.72918
0.1522 -0.0157351 -0.0413385 2.65683
0.1524 -0.000295614 0.000796741 2.69202
0.1526 0.031866 0.0222163 2.69546
0.1528 -0.0408125 -0.00816376 2.6513
0.153 0.0186435 -0.00229546 2.67696
0.1532 0.00182249 -0.00336328 2.67232
0.1534 0.00520789 0.00281449 2.68241
0.1536 0.0293226 0.0245995 2.70854
0.1538 -0.0151241 -0.00238807 2.67198
0.154 0.00290367 0.00558276 2.69747
0.1542 -0.0137158 -0.0309849 2.66408
0.1544 0.0241403 0.0247881 2.70123
0.1546 -0.0222685 -0.0332865 2.67024
0.1548 -0.0131399 0.0107259 2.67488
0.155 0.0106279 0.0194183 2.68725
0.1552 -0.00623253 -0.0335194 2.66482
0.1554 0.0217698 0.0185374 2.67976
0.1556 -0.0343739 0.00980021 2.65882
0.1558 -0.00972067 -0.00776211 2.64809
0.156 0.0155139 0.00830729 2.65139
0.1562 -0.0239817 -0.0162117 2.62552
0.1564 0.00392252 0.0181727 2.63872
0.1566 -0.0129185 0.00363808 2.59947
0.1568 0.0163798 0.0149358 2.6186
0.157 -0.0068681 -0.0241049 2.5804
0.1572 -0.00658868 0.0103785 2.58677
0.1574 -0.0115778 0.00102625 2.56173
0.1576 0.00619126 0.00488797 2.56354
0.1578 0.0267129 0.0460469 2.56724
0.158 -0.0256622 -0.0279664 2.5413
0.1582 0.0210725 -0.00531682 2.55822
0.1584 0.000640744 0.00526114 2.56878
0.1586 -0.0187253 -0.0183853 2.53016
0.1588 0.0223861 0.0192469 2.5592
0.159 -0.0176668 -0.0170971 2.55243
0.1592 0.0218888 0.00765895 2.55434
0.1594 -0.0192272 0.00357764 2.55291
0.1596 -0.00750335 -0.0276913 2.53518
0.1598 0.0232809 -0.0070609 2.57708
0.16 -0.0326437 -0.0228013 2.54022
0.1602 -0.00243819 0.0283787 2.57626
0.1604 -0.0069195 -0.0170485 2.5743
0.1606 0.0255698 0.00850561 2.56712
0.1608 0.00618539 0.00033936 2.58213
0.161 -0.0266277 -0.0025569 2.5628
0.1612 -0.00204264 0.0114715 2.58222
0.1614 0.00514876 0.00597715 2.57354
0.1616 0.0146836 -0.00714331 2.56729
0.1618 -0.0093833 -0.011702 2.5576
0.162 -0.0102934 0.00443363 2.56981
0.1622 0.00635109 0.0062945 2.56895
0.1624 0.0146399 -0.00172367 2.58532
0.1626 -0.0163859 -0.0197693 2.57981
0.1628 -0.00748181 0.0232641 2.6027
0.163 -0.0214129 -0.0207757 2.60562
0.1632 0.0357408 0.0043838 2.64033
0.1634 -0.0312565 -0.0166624 2.63206
0.1636 -0.0159194 0.0167463 2.64963
0.1638 0.013554 -0.0033405 2.66323
0.164 -0.00543733 -0.0117461 2.66348
0.1642 0.0153797 0.0133476 2.68546
0.1644 -0.00423453 0.0111107 2.68529
0.1646 0.00552322 0.00045619 2.68461
0.1648 -0.0040666 0.00880901 2.6926
0.165 -0.0136327 -0.0267559 2.66399
0.1652 0.00932649 -0.00191261 2.69048
0.1654 -0.0261451 0.00433649 2.67684
0.1656 -0.00427777 0.00250119 2.68862
0.1658 0.00698488 -0.0163023 2.67571
0.166 -0.0126724 -0.0131718 2.67926
0.1662 0.00277716 0.00216011 2.69347
0.1664 -0.0234171 -0.0119055 2.66877
0.1666 0.0165503 0.00203518 2.69279
0.1668 -0.00976149 -0.0163503 2.69745
0.167 -0.0126995 -0.00671603 2.69034
0.1672 -0.0226048 0.00823854 2.70263
0.1674 0.0217614 0.0217948 2.7227
0.1676 -0.00713534 -0.017593 2.7124
0.1678 -0.00781948 -0.0218437 2.72344
0.168 0.00959656 0.000293911 2.74918
0.1682 -0.0209602 0.0151566 2.75676
0.1684 0.00257767 0.00777803 2.76146
0.1686 0.00555804 -0.0188194 2.7684
0.1688 0.0147745 0.0201524 2.79971
0.169 -0.0078826 0.00210363 2.80669
0.1692 0.0110547 0.0343363 2.82316
0.1694 0.0133901 0.0120017 2.8166
0.1696 0.00934521 -0.00337762 2.8252
0.1698 -0.0238582 -0.00115963 2.82069
0.17 0.0224773 -0.00710706 2.85151
0.1702 0.0250135 0.0212739 2.86759
0.1704 0.0060116 0.012642 2.88508
0.1706 0.00907819 -0.00102941 2.89454
0.1708 -0.00480009 -0.00681748 2.89379
0.171 0.0259788 -0.00262308 2.92347
0.1712 -0.00240243 0.00791714 2.94622
0.1714 -0.00838829 0.0112361 2.93743
0.1716 -0.00117365 -0.0110883 2.92675
0.1718 0.0191152 0.00507713 2.94664
0.172 -0.0197091 -0.0293736 2.91943
0.1722 -0.00658465 0.00868921 2.9311
0.1724 0.0190853 0.0140628 2.93765
0.1726 -0.0127128 -0.000617999 2.92119
0.1728 -0.010806 -0.0258827 2.91168
0.173 0.0189171 0.0107567 2.92786
0.1732 -0.00729205 -0.00290582 2.91733
0.1734 0.00559457 0.0108698 2.92921
0.1736 -0.00914436 -0.0119806 2.92042
0.1738 0.0187927 0.00902351 2.94403
0.174 -9.2897e-05 0.00660771 2.94947
0.1742 -0.0152307 -0.0149854 2.94704
0.1744 0.0239015 0.0118233 2.97871
0.1746 0.00661026 -0.008641 2.97223
0.1748 0.000655518 0.00830545 2.97673
0.175 -0.00758881 0.000160716 2.98217
0.1752 0.00727035 -0.00407384 3.00128
0.1754 0.0206092 0.0158806 3.03048
0.1756 -0.0171115 -0.0127627 3.00217
0.1758 0.00782821 0.0110192 3.04297
0.176 0.00512949 -0.0104214 3.05346
0.1762 0.0133529 0.00742625 3.0507
0.1764 -0.0156505 -0.0103465 3.04166
0.1766 -0.00119136 -0.00983555 3.06116
0.1768 0.019948 0.00425149 3.07912
0.177 -0.00668935 0.00810482 3.06901
0.1772 -0.0026051 -0.00531477 3.04183
0.1774 0.00269049 -0.00586026 3.0505
0.1776 0.0234923 0.0120371 3.06102
0.1778 -0.0238927 0.00505409 3.0419
0.178 -0.0103786 -0.011379 3.03367
0.1782 0.00426518 -0.0112412 3.04944
0.1784 0.00195048 -0.00397676 3.05418
0.1786 0.011234 0.0188118 3.04625
0.1788 -0.0121445 -0.0113996 3.03317
0.179 0.00354242 0.00800106 3.04634
0.1792 0.00227456 -0.0019743 3.03853
0.1794 -0.0107672 0.00471952 3.04644
0.1796 0.00822793 -0.0107118 3.04911
0.1798 0.00283402 -0.00745151 3.07356
0.18 -0.0124313 0.0093242 3.08001
0.1802 0.00227812 0.00720522 3.08777
0.1804 0.00647043 -0.0087401 3.10364
0.1806 0.00104575 0.00292496 3.11626
0.1808 -0.0073516 -0.00101951 3.12584
0.181 0.0120954 0.00627152 3.13528
0.1812 -0.00145694 0.00556971 3.15289
0.1814 -0.0122604 -0.0205769 3.1473
0.1816 0.00276442 0.0134464 3.16932
0.1818 -0.00459185 -0.0119542 3.17179
0.182 0.0193092 -0.00502619 3.2006
0.1822 -0.0275013 -0.0241082 3.19176
0.1824 0.0187601 0.042603 3.24503
0.1826 -0.0143652 -0.0197592 3.20744
0.1828 0.0243076 0.000216571 3.25175
0.183 0.0134371 0.0143598 3.2553
0.1832 -0.010583 0.00719833 3.24488
0.1834 0.00901906 0.00968966 3.26241
0.1836 0.0118354 -0.0117427 3.2699
0.1838 0.012025 0.0160257 3.29493
0.184 0.001763 -0.00196569 3.30112
0.1842 -0.016945 -0.00122517 3.30075
0.1844 -0.0166941 -0.00529384 3.29572
0.1846 0.0251923 0.0146671 3.33055
0.1848 -0.000441363 -0.0103226 3.32038
0.185 -0.0130265 -0.000145606 3.33259
0.1852 0.0131898 -0.00469739 3.3432
0.1854 -0.0216079 -0.00180753 3.32301
0.1856 0.0112813 0.0140517 3.3425
0.1858 -0.00350772 -0.0141168 3.32167
0.186 0.0127967 0.0182516 3.33751
0.1862 -0.00494678 -0.0100084 3.31806
0.1864 -0.00473173 -0.00758106 3.31608
0.1866 0.00524329 0.0131886 3.32719
0.1868 -0.0068412 -0.00112734 3.30376
0.187 0.0135124 0.00209052 3.31508
0.1872 -0.0290254 -0.0198406 3.29228
0.1874 0.0133538 0.0213516 3.33003
0.1876 -0.0189519 -0.0168774 3.289
0.1878 0.00394896 -0.00954359 3.31138
0.188 0.0110153 0.019345 3.32754
0.1882 -0.0272297 -0.0259846 3.2922
0.1884 0.00325911 0.0103537 3.32198
0.1886 -0.00794545 -0.0214715 3.30219
0.1888 0.0255685 0.0255264 3.34629
0.189 -0.00941815 -0.0163225 3.30782
0.1892 0.00222226 0.0165943 3.32058
0.1894 0.00586699 0.00461384 3.33006
0.1896 -0.0159951 -0.00863162 3.31804
0.1898 0.0149672 0.0138896 3.33811
0.19 0.00345916 -0.0142047 3.3338
0.1902 0.00137118 0.0175897 3.34814
0.1904 -0.00526463 -0.00941653 3.35828
0.1906 0.0123927 -0.000300182 3.36821
0.1908 -0.00785848 -0.0144328 3.35744
0.191 0.0228264 0.0150341 3.38332
0.1912 -0.00330485 -0.00665008 3.3605
0.1914 -0.0161053 -0.0153078 3.35764
0.1916 0.0158952 0.0167667 3.37854
0.1918 -0.010141 -0.0327231 3.35501
0.192 -0.00413635 0.00731351 3.38499
0.1922 0.00337268 0.0101405 3.38482
0.1924 -0.0172098 -0.0118127 3.37139
0.1926 0.016556 0.0192458 3.39205
0.1928 -0.0133532 -0.00821594 3.37701
0.193 0.0135054 0.00498831 3.3859
0.1932 0.0105876 0.00484727 3.3708
0.1934 -0.00828924 0.0128229 3.36871
0.1936 0.0339364 0.0161453 3.38348
0.1938 -0.0128642 -0.0218166 3.35563
0.194 -0.0140083 -0.0100014 3.36514
0.1942 0.00434263 0.0221455 3.38409
0.1944 -0.00311019 -0.0143766 3.3655
0.1946 0.00337241 0.0030342 3.37858
0.1948 0.0112065 0.00225689 3.38419
0.195 -0.0140624 -0.0118634 3.37521
0.1952 -0.0112602 0.0149273 3.38554
0.1954 -0.00157192 -0.0111382 3.37054
0.1956 0.0203916 -0.000694857 3.38635
0.1958 -0.00855492 -0.00732265 3.3809
0.196 0.0107849 0.0186812 3.37706
0.1962 -0.0150861 -0.00233103 3.3568
0.1964 0.0133101 -0.0127398 3.36282
0.1966 0.0119411 0.00638012 3.36339
0.1968 -0.00577582 0.0235301 3.36552
0.197 -0.00434648 0.00850023 3.33695
0.1972 -0.00316314 -0.0171286 3.3319
0.1974 0.0207746 0.00486047 3.35539
0.1976 -0.0250391 -0.0108615 3.33371
0.1978 -0.00632642 -0.0103126 3.33813
0.198 0.00216999 0.00941098 3.37151
0.1982 -0.00645782 -0.0140966 3.36869
0.1984 -0.003679 -0.00739625 3.36268
0.1986 0.0107949 -0.00117198 3.37493
0.1988 -0.00980881 0.00867575 3.37293
0.199 0.0149493 0.013196 3.36804
0.1992 -0.0101735 -0.0207523 3.3526
0.1994 -0.0012702 -0.00161927 3.34986
0.1996 0.0190023 0.0180714 3.36432
0.1998 -0.0123293 -0.000943508 3.33978
0.2 -0.0027284 0.00784605 3.33315