File: Post Processing/Pure Ni/With_FeCrCoNiCu_Potential/Ni_Tensile_5KeV.def1.txt
# Fix print output for fix def1
2.86709e-15 0.16158 -0.323221 0.360154
0.0002 0.0861073 0.0268907 0.477071
0.0004 -0.0737337 0.0139895 0.44024
0.0006 0.0197724 0.0164422 0.512714
0.0008 0.0159015 -0.0305466 0.526763
0.001 0.00219195 0.0104472 0.572016
0.0012 -0.0132674 0.0126663 0.599586
0.0014 0.00472656 -0.00407535 0.632448
0.0016 0.011069 -0.00202017 0.66935
0.0018 -0.00762999 -0.000873244 0.694438
0.002 0.00170292 0.00757685 0.730583
0.0022 0.00284853 -0.00924896 0.766151
0.0024 0.00367876 0.00502881 0.808007
0.0026 -0.00860868 0.00658477 0.83782
0.0028 0.00453633 -0.00358024 0.871703
0.003 0.00977531 -0.00731275 0.906561
0.0032 -0.00342239 0.00691522 0.940198
0.0034 -0.00443057 0.0049409 0.971488
0.0036 0.00641102 -0.00726768 1.00742
0.0038 0.0039481 -0.00146928 1.04792
0.004 -0.0047387 0.00512519 1.0821
0.0042 -0.00208208 0.00251339 1.11574
0.0044 0.00636065 -0.00626929 1.15168
0.0046 0.00444918 -0.00239923 1.18685
0.0048 -0.00782629 0.00762693 1.21674
0.005 0.00234519 0.00171102 1.25519
0.0052 0.00784393 -0.00630256 1.29697
0.0054 -0.0017102 0.00209775 1.33213
0.0056 -0.00439112 0.00806419 1.37112
0.0058 0.00235174 -0.00454433 1.40455
0.006 0.00842902 -0.0038857 1.44399
0.0062 -0.00278311 0.0013678 1.47699
0.0064 -0.00441214 0.0064289 1.51404
0.0066 0.00149271 -0.00195025 1.55491
0.0068 0.00543413 -0.00317273 1.59666
0.007 -0.000851085 -1.63817e-05 1.62709
0.0072 -0.00196814 0.00105958 1.65965
0.0074 0.00182405 0.00173118 1.70118
0.0076 -0.00255497 0.00107961 1.73972
0.0078 0.00363888 -0.00279043 1.77953
0.008 0.00187749 -0.00169989 1.81842
0.0082 -0.0031843 0.00545075 1.85685
0.0084 -0.00154496 0.0025395 1.89525
0.0086 0.00481954 -0.0041091 1.93514
0.0088 0.000292123 -0.000326651 1.97297
0.009 -0.00378432 0.0042702 2.00662
0.0092 0.00288665 -0.00153383 2.04706
0.0094 0.00550653 -0.00255406 2.09006
0.0096 -0.00142328 0.00151933 2.1283
0.0098 -0.004678 0.00498061 2.16815
0.01 0.00372688 -0.00243549 2.2029
0.0102 0.00725652 -0.00732843 2.23855
0.0104 -0.00184466 0.00288859 2.2784
0.0106 -0.00640346 0.00787858 2.32181
0.0108 -9.3982e-05 -0.00140208 2.36397
0.011 0.00857942 -0.00407189 2.40583
0.0112 0.000499287 -0.00169263 2.44189
0.0114 -0.00379663 0.00550729 2.48703
0.0116 -1.46621e-05 0.0012073 2.52877
0.0118 0.00495876 -0.00311595 2.5677
0.012 -0.00050023 -0.00148828 2.60433
0.0122 -0.00167152 0.00465931 2.64728
0.0124 0.00101272 -0.0016442 2.68763
0.0126 0.00363203 -0.00113539 2.72842
0.0128 -0.00175349 0.000896709 2.76386
0.013 -0.000481685 0.00163283 2.80547
0.0132 0.00450092 -0.00473971 2.84627
0.0134 0.00113035 0.00279887 2.88858
0.0136 -0.00700718 0.00148173 2.92484
0.0138 0.00143943 0.0031615 2.9731
0.014 0.00262713 -0.00412368 3.01424
0.0142 0.00255435 0.000153505 3.05792
0.0144 -0.00270061 0.00320703 3.09886
0.0146 -0.00154771 0.0022106 3.13876
0.0148 0.00363619 -0.00111099 3.183
0.015 0.000238493 -0.00055649 3.22351
0.0152 -0.00166933 0.00134844 3.26101
0.0154 0.00346091 -0.00382406 3.30034
0.0156 0.00334176 -0.00128534 3.34375
0.0158 -0.00925305 0.00622379 3.3806
0.016 0.00142165 -6.0255e-05 3.42577
0.0162 0.013638 -0.0097432 3.4708
0.0164 -0.00185919 0.000256297 3.50742
0.0166 -0.0101246 0.0118981 3.55034
0.0168 -0.00345013 0.00337288 3.5937
0.017 0.0096474 -0.00808736 3.63834
0.0172 0.00646643 -0.00331729 3.68161
0.0174 -0.00399869 0.00551658 3.72188
0.0176 -0.00636517 0.00754905 3.76268
0.0178 0.00103121 -0.00221594 3.8061
0.018 0.00840061 -0.00481207 3.84898
0.0182 -0.00269297 -0.00116711 3.88493
0.0184 -0.0057954 0.0079475 3.9278
0.0186 0.000322665 -0.00281378 3.97157
0.0188 0.00924766 -0.00585467 4.01713
0.019 0.000459217 -0.00141097 4.05432
0.0192 -0.00568186 0.00696238 4.09444
0.0194 -0.00160229 -0.00138874 4.13729
0.0196 0.00911674 -0.00448768 4.18574
0.0198 -0.00138661 -0.000756166 4.22256
0.02 -0.00405049 0.00805779 4.26731
0.0202 -0.000513493 -0.000433782 4.31121
0.0204 0.00678936 -0.00484564 4.3557
0.0206 0.000366437 0.000453079 4.39369
0.0208 -0.0075559 0.00665889 4.43293
0.021 -0.0012009 0.00215884 4.47608
0.0212 0.00416694 -0.00429757 4.51755
0.0214 0.00585474 -0.00336894 4.56071
0.0216 0.00060236 0.000196886 4.59921
0.0218 -0.00251843 0.00189183 4.64033
0.022 0.00102931 -0.00105756 4.68559
0.0222 -9.13858e-05 0.00188601 4.7288
0.0224 -0.00204889 0.000694985 4.76856
0.0226 0.00542116 -0.00302391 4.80981
0.0228 0.00339938 0.000848311 4.8512
0.023 -0.00432048 0.0033519 4.8915
0.0232 -0.00210544 0.00434519 4.93663
0.0234 0.00270716 -0.00055095 4.98149
0.0236 0.00533813 -0.00364443 5.02275
0.0238 0.00218844 -0.000580575 5.06343
0.024 -0.00538421 0.0062991 5.10284
0.0242 -0.00427373 0.00325465 5.14404
0.0244 0.0053171 -0.0037983 5.18681
0.0246 0.00659384 -0.0066431 5.22514
0.0248 0.00339963 -0.0004334 5.265
0.025 -0.00315771 0.00169754 5.3044
0.0252 -0.00530799 0.00768338 5.34553
0.0254 -0.00493475 0.000333392 5.38408
0.0256 0.0090378 -0.000167615 5.43352
0.0258 0.00575006 -0.0096332 5.4694
0.026 0.00316498 0.00368124 5.51301
0.0262 -0.011374 0.00631794 5.54827
0.0264 -0.00203883 0.0082297 5.59363
0.0266 0.00178151 -0.00760245 5.63344
0.0268 0.0118631 -0.00356004 5.68006
0.027 -0.000788185 -0.00269978 5.7133
0.0272 -0.00585464 0.00848674 5.75377
0.0274 -0.00462072 0.00168874 5.79716
0.0276 0.0065095 -0.00383346 5.84119
0.0278 0.00937993 -0.00902434 5.88026
0.028 0.00743389 -0.0041979 5.91381
0.0282 -0.00659652 0.00712505 5.94321
0.0284 -0.0116354 0.00943795 5.98021
0.0286 -0.00136274 0.00229917 6.02709
0.0288 0.00928405 -0.00754846 6.07432
0.029 0.0101005 -0.00827416 6.11326
0.0292 -7.0875e-06 0.00260787 6.14974
0.0294 -0.0120802 0.00851952 6.18543
0.0296 -0.00576278 0.00697675 6.22867
0.0298 0.00391236 -0.00365124 6.26995
0.03 0.0117051 -0.00652004 6.3091
0.0302 0.00466052 -0.00468964 6.34402
0.0304 -0.00085388 0.00649046 6.38013
0.0306 -0.00721319 0.00467018 6.41939
0.0308 0.00339245 -0.00226493 6.46123
0.031 0.00891614 -0.00497387 6.50086
0.0312 0.00244392 -0.00320428 6.5337
0.0314 0.00253781 0.00170085 6.56862
0.0316 -0.00613793 0.00509043 6.60106
0.0318 -0.00535816 0.00745369 6.63772
0.032 0.00169812 -0.00117418 6.67967
0.0322 0.00896501 -0.004941 6.72197
0.0324 0.00394047 -0.00279853 6.75371
0.0326 -0.000876082 0.00330844 6.78866
0.0328 -0.0055121 0.00280865 6.8216
0.033 -0.000733237 0.00525823 6.8633
0.0332 0.00112533 -0.00472844 6.90383
0.0334 0.0093869 -0.00256524 6.94755
0.0336 0.00193576 -0.0033224 6.97831
0.0338 0.00360426 0.000956411 7.00821
0.034 0.000761748 -0.000965882 7.03846
0.0342 -0.000747626 0.00296635 7.07347
0.0344 -0.000496301 0.000708577 7.11339
0.0346 -0.000696471 0.0013304 7.15102
0.0348 0.000466416 0.000364362 7.18642
0.035 -0.00103647 -0.000332352 7.21904
0.0352 0.00201286 0.000968096 7.25195
0.0354 0.00239666 -0.00176493 7.28641
0.0356 0.00327757 -0.000667145 7.31873
0.0358 0.00169405 -0.000237565 7.34779
0.036 -0.00185802 0.00106351 7.37897
0.0362 -0.00241288 0.00157773 7.41145
0.0364 0.000746908 0.000870362 7.4478
0.0366 0.0064709 -0.00519412 7.48459
0.0368 0.00974462 -0.00402726 7.5184
0.037 -0.00203742 -0.00124889 7.54127
0.0372 -0.00274665 0.00459447 7.57403
0.0374 -0.00223364 0.000846605 7.60682
0.0376 0.000311528 0.0020331 7.63747
0.0378 0.00318834 -0.000931878 7.67345
0.038 0.00183784 -7.27907e-05 7.70712
0.0382 0.00306867 0.000731663 7.7397
0.0384 0.00207084 -0.00352871 7.77212
0.0386 0.00300224 0.00112491 7.80066
0.0388 -0.00263071 -0.000483825 7.82613
0.039 0.00299228 0.00211528 7.85851
0.0392 0.00336772 -0.00466025 7.88621
0.0394 0.00437902 0.00103607 7.91134
0.0396 0.00150925 -0.00176305 7.93409
0.0398 0.00525311 0.000720476 7.96248
0.04 0.000627342 -0.000641322 7.98776
0.0402 0.00391632 -0.00125035 8.01936
0.0404 0.00140835 -0.00108331 8.04619
0.0406 0.00437349 -0.00354435 8.07494
0.0408 0.00437857 -0.000416324 8.10236
0.041 -0.00276719 -0.000536616 8.12053
0.0412 -0.00227554 0.00557977 8.14416
0.0414 -0.000260371 0.000255446 8.17407
0.0416 0.00577916 -0.00255886 8.20938
0.0418 0.0056868 -0.00274883 8.23886
0.042 0.00801107 -0.00568854 8.26439
0.0422 0.00888966 -0.00723207 8.2859
0.0424 0.00843806 -0.00239656 8.2991
0.0426 0.00394396 -0.00351963 8.31218
0.0428 0.00289817 0.0021242 8.33124
0.043 0.00177535 0.000122689 8.35485
0.0432 0.00124055 0.00150276 8.37937
0.0434 0.00247873 -0.000395877 8.40675
0.0436 0.0056852 -0.00394862 8.43353
0.0438 0.00577218 -0.00133421 8.45639
0.044 0.00313637 -0.00129421 8.47833
0.0442 0.00502137 0.000345542 8.49649
0.0444 0.00231906 -0.00296925 8.5164
0.0446 0.00575228 -0.00211724 8.54001
0.0448 0.00480552 -0.00129888 8.55944
0.045 0.00176328 6.16684e-06 8.58115
0.0452 0.00408743 -0.00200181 8.60382
0.0454 0.00695433 -0.00427663 8.62344
0.0456 0.00602117 -0.00277449 8.64059
0.0458 0.00806152 -0.00326321 8.6587
0.046 0.0055754 -0.00212761 8.67593
0.0462 0.00274421 -0.000282734 8.69373
0.0464 0.00171841 0.00104045 8.71435
0.0466 -0.00102418 0.00155163 8.73693
0.0468 -0.000616936 0.0027169 8.76083
0.047 0.000153276 -0.000210335 8.78756
0.0472 0.00358369 -0.000175892 8.8142
0.0474 0.00899936 -0.00596058 8.83629
0.0476 0.0102008 -0.0082528 8.85657
0.0478 0.00859707 -0.0045844 8.8706
0.048 0.00019954 0.000926376 8.8833
0.0482 -0.00170392 0.0061113 8.90407
0.0484 -0.00129347 0.00141292 8.92964
0.0486 0.00820279 -0.00364904 8.9579
0.0488 0.00601684 -0.00475308 8.9741
0.049 0.0024276 0.000619545 8.99395
0.0492 -0.00172924 0.00170467 9.01456
0.0494 0.000346179 0.00288644 9.04185
0.0496 -0.00126295 0.00192048 9.07021
0.0498 0.000870982 -0.00284699 9.10302
0.05 0.00616864 -0.0010834 9.13319
0.0502 0.00812993 -0.00467205 9.15546
0.0504 0.00680933 -0.00466774 9.17162
0.0506 0.00392645 -0.00212111 9.18644
0.0508 -0.00132318 0.000806468 9.20494
0.051 -0.0071226 0.00450883 9.22577
0.0512 -0.00238917 0.00583285 9.25367
0.0514 0.00366939 -0.0019105 9.28513
0.0516 0.0121576 -0.00691064 9.31347
0.0518 0.0114835 -0.00354733 9.33412
0.052 -0.00366238 -0.00140323 9.34341
0.0522 -0.00587736 0.011176 9.36556
0.0524 -0.00808943 0.00274531 9.39294
0.0526 0.00311419 0.00220497 9.429
0.0528 0.0063578 -0.00964218 9.46063
0.053 0.0104609 -0.00565941 9.48882
0.0532 0.00353682 -0.000936801 9.50811
0.0534 0.000525578 -0.00296002 9.52525
0.0536 0.00128187 0.00494635 9.54696
0.0538 -0.00473689 0.000113189 9.56672
0.054 0.00284543 0.00239054 9.59659
0.0542 0.00173531 -0.00393481 9.61952
0.0544 0.00467769 -0.00341944 9.64664
0.0546 0.00570602 0.00170223 9.67057
0.0548 -0.00619351 -6.54303e-05 9.68961
0.055 -0.00420243 0.00923648 9.71752
0.0552 -0.00467779 -0.00089135 9.74411
0.0554 0.00902228 -0.00582005 9.77861
0.0556 0.0127704 -0.00984925 9.80502
0.0558 0.0036063 -0.00468954 9.82344
0.056 -0.00656957 0.0100944 9.84472
0.0562 -0.00677971 0.00740163 9.87076
0.0564 0.00222952 -0.000212326 9.90212
0.0566 0.00938449 -0.00436384 9.93337
0.0568 0.0067205 -0.00363397 9.95594
0.057 0.00167912 0.000975066 9.97636
0.0572 -0.0027476 0.00209063 9.99639
0.0574 0.000111082 0.00275605 10.0233
0.0576 -0.00061083 -0.00054503 10.0492
0.0578 0.000679709 -0.00220981 10.0764
0.058 0.00277006 -0.000326195 10.1034
0.0582 0.00147065 -0.00347637 10.1272
0.0584 0.00341252 -0.000213249 10.1521
0.0586 -0.00224816 -0.00101259 10.172
0.0588 -0.00469822 0.00317831 10.1978
0.059 -0.00061354 0.00626869 10.228
0.0592 0.00433139 -0.00322298 10.2581
0.0594 0.00673129 -0.00426652 10.2856
0.0596 0.00346859 -0.00153671 10.3088
0.0598 -0.00706545 0.00437707 10.3288
0.06 -0.00104539 0.00399562 10.3563
0.0602 0.00241677 -0.00510187 10.3828
0.0604 0.00534289 -0.00328699 10.4094
0.0606 -0.00292359 0.00138017 10.4313
0.0608 -0.00435129 0.00637163 10.4586
0.061 0.00450662 -0.00179865 10.4897
0.0612 0.00929291 -0.00536098 10.5171
0.0614 0.0029485 -0.00257808 10.5381
0.0616 -0.0047915 0.00659922 10.5606
0.0618 -0.00886428 0.00608521 10.5862
0.062 0.000985787 0.00269415 10.619
0.0622 0.011257 -0.00704019 10.6511
0.0624 0.00754109 -0.00714784 10.6739
0.0626 -0.00321262 0.00335208 10.6951
0.0628 -0.00924645 0.0063405 10.7173
0.063 -0.000841948 0.00152706 10.747
0.0632 0.00947693 -0.0048208 10.7784
0.0634 0.00688046 -0.00566682 10.8027
0.0636 -0.00219107 -0.00230796 10.8224
0.0638 -0.00351473 0.00810328 10.846
0.064 -0.00338622 -0.000198809 10.8711
0.0642 0.00250925 -8.45821e-05 10.9018
0.0644 0.00064566 -0.00285587 10.9274
0.0646 -0.0041308 0.0012977 10.9555
0.0648 0.00217044 -0.00104148 10.9839
0.065 0.00433482 -0.00162791 11.0098
0.0652 0.000853264 -0.00138865 11.0341
0.0654 -0.00228392 0.00269225 11.0583
0.0656 -0.0036109 -6.53219e-05 11.0847
0.0658 0.00141344 -0.00163928 11.1144
0.066 0.00764073 -0.0022867 11.143
0.0662 0.00101324 -0.00197795 11.1669
0.0664 -0.00305426 0.00292911 11.1902
0.0666 -0.000201103 0.00743114 11.2186
0.0668 0.000735761 -0.00148696 11.2447
0.067 0.00587499 -0.00295506 11.2731
0.0672 -0.00126684 0.000751529 11.2972
0.0674 -0.00613616 0.00280212 11.3225
0.0676 0.00217241 0.00217382 11.3518
0.0678 0.00517871 -0.00687343 11.3783
0.068 0.000950161 -0.0024524 11.4019
0.0682 -0.00185046 0.00424738 11.4265
0.0684 -0.00509888 0.00276998 11.4517
0.0686 0.00210646 -0.000629513 11.4816
0.0688 0.00801573 -0.00446072 11.5099
0.069 0.00374153 -0.00531436 11.5326
0.0692 -0.00387535 0.00506486 11.5541
0.0694 -0.00730142 0.00707179 11.5793
0.0696 -0.00135104 -0.00116478 11.6088
0.0698 0.00780355 -0.0028584 11.6407
0.07 0.00259009 -0.00232866 11.6658
0.0702 -0.00690646 0.00347612 11.6904
0.0704 0.00196905 0.00416124 11.7203
0.0706 0.00332007 -0.00619773 11.7463
0.0708 0.00704645 -0.00163046 11.7731
0.071 -0.00289977 0.00360049 11.7964
0.0712 -0.00729892 0.00111122 11.8203
0.0714 0.00296788 0.00311334 11.8521
0.0716 0.00478577 -0.00888625 11.8773
0.0718 0.00501008 -0.00180502 11.9022
0.072 -0.00456921 0.00746918 11.9246
0.0722 -0.0114891 0.00197208 11.9481
0.0724 0.00625187 0.00398638 11.9824
0.0726 0.00732304 -0.0104001 12.0091
0.0728 0.00234352 -0.00220849 12.0359
0.073 -0.0028434 0.00831133 12.06
0.0732 -0.00684311 -0.000986195 12.0839
0.0734 0.00952637 -0.00183982 12.1145
0.0736 0.00309006 -0.0047418 12.1372
0.0738 -0.00573101 0.00438843 12.1613
0.074 -0.002403 0.00733341 12.1886
0.0742 0.00158123 -0.00450249 12.2173
0.0744 0.00675589 -0.00570333 12.2459
0.0746 0.00381536 0.00210574 12.27
0.0748 -0.0070736 0.00319077 12.2918
0.075 -0.00240418 0.00487705 12.3203
0.0752 0.0023518 -0.00319139 12.348
0.0754 0.00393205 -0.00347541 12.3752
0.0756 0.000737448 0.000668285 12.4009
0.0758 -0.00649989 0.00137323 12.4261
0.076 0.000544715 0.00241464 12.4557
0.0762 0.00493508 -0.00595978 12.4817
0.0764 0.00193086 -0.00426625 12.5064
0.0766 -0.0037262 0.00623249 12.5304
0.0768 -0.00552103 0.00377932 12.5551
0.077 0.00310805 -0.00291699 12.5839
0.0772 0.00720369 -0.00449276 12.6117
0.0774 -0.000996083 0.000198925 12.6344
0.0776 -0.00588009 0.00554542 12.658
0.0778 -0.00355539 0.0046587 12.6865
0.078 0.00463659 -0.00368921 12.7166
0.0782 0.0099599 -0.00628539 12.7443
0.0784 -0.00248652 -0.00166492 12.7658
0.0786 -0.00540839 0.00639179 12.7911
0.0788 -0.00175383 0.00206685 12.8186
0.079 0.00264223 -0.00488451 12.8457
0.0792 0.00352084 -0.000382315 12.8713
0.0794 -0.00355184 -8.37558e-05 12.8946
0.0796 -0.000169853 0.00223837 12.9224
0.0798 0.00144057 -0.000718305 12.9504
0.08 0.000830451 -0.00249589 12.9758
0.0802 0.000453986 0.00261961 13.0025
0.0804 -0.00386905 0.00231239 13.0277
0.0806 0.00605848 0.000826986 13.0582
0.0808 0.0053887 -0.00424259 13.0831
0.081 -0.00272235 -0.00280551 13.1046
0.0812 -0.00218414 0.007983 13.1307
0.0814 -0.00422421 -0.00160808 13.1557
0.0816 0.00421052 -0.000498244 13.1862
0.0818 0.00231163 -0.00123343 13.212
0.082 -0.00120615 -0.00126477 13.2363
0.0822 0.00357008 0.00369932 13.2638
0.0824 -0.00285576 -0.00210171 13.2862
0.0826 -0.00159684 0.00218176 13.3135
0.0828 -3.35749e-06 0.00329539 13.3401
0.083 -0.00264538 -0.00397579 13.3659
0.0832 0.00366394 -0.0035683 13.3948
0.0834 0.000344107 0.00138153 13.4198
0.0836 -0.0020265 -0.00138603 13.4444
0.0838 0.00216805 0.000211759 13.4719
0.084 -0.000925586 -0.000434692 13.4955
0.0842 -0.000967737 0.00296123 13.5217
0.0844 0.00176566 0.00111394 13.5485
0.0846 -0.000564482 -0.0017125 13.5729
0.0848 0.00189141 0.00181432 13.6007
0.085 0.00102225 -0.000652561 13.6259
0.0852 -0.000480508 -0.00258539 13.6512
0.0854 -0.0018603 0.00619916 13.6779
0.0856 -0.000957455 0.000779401 13.7053
0.0858 0.00467476 -0.00330685 13.7329
0.086 0.00434695 -0.00388506 13.759
0.0862 -0.00238571 0.00123775 13.7806
0.0864 -0.00305291 0.00474074 13.806
0.0866 0.00228832 -0.000898466 13.8335
0.0868 0.00102478 -0.00305905 13.859
0.087 0.0017964 0.000856854 13.8856
0.0872 -0.00249791 0.00155894 13.9089
0.0874 -0.00218414 -0.00214198 13.9347
0.0876 0.00393195 0.00127484 13.9629
0.0878 0.000593146 -0.00156032 13.9884
0.088 -0.00313022 -0.00219622 14.0129
0.0882 3.19767e-05 0.00549064 14.0409
0.0884 -0.000817725 -0.00108259 14.0661
0.0886 0.00344316 -0.00409496 14.0939
0.0888 0.00682699 -0.00219189 14.1181
0.089 -0.0043084 0.00335001 14.1412
0.0892 -0.00530872 0.00359123 14.167
0.0894 0.00602512 0.00105196 14.1976
0.0896 0.00461735 -0.00416801 14.2225
0.0898 2.40846e-05 0.000633312 14.2459
0.09 -0.00298732 0.004537 14.2699
0.0902 -0.00164889 -7.20672e-05 14.2961
0.0904 0.00480621 -0.00279461 14.3241
0.0906 0.00274282 0.00164026 14.3498
0.0908 -0.00430287 0.00146809 14.3736
0.091 -0.000630363 0.00391498 14.4019
0.0912 0.00511827 -0.00233261 14.4296
0.0914 0.00460027 -0.00751022 14.4537
0.0916 0.00196091 0.00304024 14.4778
0.0918 -0.00920172 0.00540637 14.4991
0.092 -0.00198535 0.00277562 14.528
0.0922 0.00752102 -0.00307364 14.5568
0.0924 0.00403123 -0.00559354 14.5816
0.0926 -0.00145823 0.00381808 14.6039
0.0928 -0.00527204 0.00613575 14.6285
0.093 -0.00112447 -0.00206311 14.6542
0.0932 0.00737679 -0.002899 14.6838
0.0934 0.00132876 -0.00424672 14.7079
0.0936 -0.00244671 0.00378585 14.733
0.0938 -0.00164147 0.00393737 14.7595
0.094 0.00203678 -0.00264618 14.7864
0.0942 0.00507929 -0.00192477 14.8128
0.0944 -0.00182587 0.00233696 14.8352
0.0946 -0.00528608 0.00469319 14.859
0.0948 0.00107653 0.00197917 14.888
0.095 0.00646393 -0.00533198 14.9158
0.0952 0.00104349 -0.00701087 14.9385
0.0954 -0.00498588 0.0058446 14.9629
0.0956 -0.00475057 0.00487234 14.9883
0.0958 0.00310497 -0.00411169 15.0166
0.096 0.00733749 -0.00677965 15.0439
0.0962 -0.00133697 -0.00107871 15.0664
0.0964 -0.00313601 0.0073273 15.0919
0.0966 -0.00332233 0.00137083 15.1164
0.0968 0.00618723 -0.00352856 15.1446
0.097 0.00373023 -0.00303815 15.1677
0.0972 -0.00465522 0.000373251 15.1892
0.0974 -0.00461145 0.00737832 15.2141
0.0976 0.00368522 -0.00076687 15.243
0.0978 0.00545566 -0.00701115 15.2681
0.098 0.00229356 0.000922414 15.2921
0.0982 -0.00868299 0.00490036 15.3137
0.0984 -0.00306084 0.00188356 15.342
0.0986 0.00701431 -0.00508212 15.3687
0.0988 0.00412481 -0.00596582 15.3903
0.099 -0.001334 0.00302913 15.4102
0.0992 -0.00593963 0.00650652 15.4319
0.0994 0.00151988 -0.00338458 15.458
0.0996 0.00715709 -0.00330298 15.4823
0.0998 -0.00125821 -0.000644665 15.5004
0.1 -0.00370361 0.00442051 15.52
0.1002 0.000349713 0.00196746 15.5401
0.1004 0.00212811 -0.00534522 15.5579
0.1006 0.00363064 -0.00110907 15.5746
0.1008 -0.000858701 0.00204174 15.5855
0.101 -0.00310304 0.00189697 15.5972
0.1012 0.00193743 0.00183011 15.6089
0.1014 0.00443496 -0.0031245 15.6195
0.1016 0.00144367 -0.00481727 15.6235
0.1018 -0.00228168 0.00568715 15.6239
0.102 -0.00193446 0.00614928 15.6244
0.1022 -0.000169003 -0.00129098 15.6226
0.1024 0.00556889 -8.79604e-05 15.6177
0.1026 -0.00185532 -0.00129756 15.6032
0.1028 -0.00166292 0.0039308 15.587
0.103 -0.000496412 0.000995964 15.5705
0.1032 0.00343321 -0.00168905 15.5544
0.1034 0.00491086 -0.000706203 15.5373
0.1036 0.000489461 -2.42022e-05 15.5161
0.1038 -0.00224371 0.0048567 15.4929
0.104 0.00137422 -0.000268574 15.4695
0.1042 0.00625761 -0.00463225 15.4383
0.1044 0.00328107 0.000631075 15.3976
0.1046 -0.00519735 0.00474907 15.3527
0.1048 -0.00157561 0.00605478 15.3113
0.105 0.00263338 -0.00445522 15.2656
0.1052 0.00730787 -0.00643326 15.2118
0.1054 0.0062579 -0.000115662 15.153
0.1056 -0.00252817 0.00456141 15.0849
0.1058 -0.00190627 0.00887345 15.0148
0.106 -0.00921097 0.00409326 14.9451
0.1062 0.0100924 0.000364238 14.8948
0.1064 0.0117454 -0.011115 14.8368
0.1066 0.00321583 -0.00513593 14.7712
0.1068 0.00133906 0.0120558 14.7053
0.107 -0.00854034 0.00611554 14.6317
0.1072 0.00338246 0.00179608 14.565
0.1074 0.00835667 -0.00394993 14.5009
0.1076 0.00363836 -0.00355235 14.43
0.1078 -0.000824543 0.00774803 14.3463
0.108 0.000369368 0.00477133 14.2324
0.1082 6.52118e-05 0.00123896 14.1035
0.1084 0.00991662 -0.00150674 13.9835
0.1086 0.000334494 -0.00355275 13.8712
0.1088 0.00336989 0.00730368 13.7764
0.109 -0.00347879 -0.00258875 13.6913
0.1092 0.0117462 0.00073734 13.625
0.1094 0.0188314 -0.00545935 13.5463
0.1096 -0.00595929 -0.00109641 13.4546
0.1098 -0.00826793 0.0212127 13.3673
0.11 -0.00121552 0.0116873 13.2754
0.1102 0.00459821 -0.00211274 13.1711
0.1104 0.00728353 -0.000372153 13.0687
0.1106 0.00394011 0.00233524 12.9552
0.1108 -0.00209318 0.00769246 12.8356
0.111 -0.00187123 0.00503231 12.7147
0.1112 0.0095658 -0.00367424 12.5919
0.1114 0.0325915 -0.0210668 12.4598
0.1116 0.0245671 -0.00941814 12.3103
0.1118 -0.00854519 0.0196394 12.1319
0.112 -0.0340431 0.0323998 11.9663
0.1122 -0.0161211 0.0340088 11.8323
0.1124 -0.0122789 0.0125898 11.7003
0.1126 0.0106172 0.00646995 11.5784
0.1128 -0.00237752 0.00622866 11.4549
0.113 0.00120983 0.0181029 11.3292
0.1132 0.0106902 -0.00922066 11.18
0.1134 0.0202138 -0.00532565 11.0222
0.1136 -0.00409353 0.00678914 10.8513
0.1138 -0.0168133 0.0150893 10.6981
0.114 0.0175468 -0.00592225 10.552
0.1142 0.0347237 -0.0230858 10.4012
0.1144 0.0208295 -0.00631153 10.2394
0.1146 -0.00277797 0.0154151 10.0667
0.1148 -0.0175089 0.0148748 9.8844
0.115 0.0104373 0.0144216 9.72852
0.1152 0.0104516 -0.0241124 9.53386
0.1154 0.0288057 -0.014681 9.38647
0.1156 0.0213513 -0.0126125 9.22468
0.1158 0.0131877 -0.00111398 9.07384
0.116 0.0242336 -0.00911999 8.91918
0.1162 0.0080573 -0.007318 8.73728
0.1164 0.00568675 0.0155788 8.57044
0.1166 -0.00919227 -0.00214089 8.38858
0.1168 0.0167978 0.00435388 8.24676
0.117 0.029589 -0.025795 8.0996
0.1172 0.0118206 -0.020881 7.94408
0.1174 0.0109843 0.00290411 7.812
0.1176 0.00931715 0.013439 7.69032
0.1178 0.00466582 -0.00992301 7.56648
0.118 0.00760745 0.0126658 7.45754
0.1182 0.00919525 -0.0205388 7.33471
0.1184 0.0228001 0.00277602 7.23748
0.1186 0.000484426 -0.00840383 7.12728
0.1188 0.0185181 -0.00940137 7.02921
0.119 0.0129064 -0.00816967 6.9187
0.1192 0.0183563 -0.017852 6.8237
0.1194 0.013097 0.00257424 6.7473
0.1196 -0.0129731 -0.00842362 6.63631
0.1198 6.91729e-05 0.014443 6.55769
0.12 0.00439524 -0.00576761 6.47136
0.1202 0.00660429 -0.0175364 6.41591
0.1204 0.0228739 0.00609451 6.36535
0.1206 -0.000340722 -0.0037216 6.31943
0.1208 0.00243447 0.0150022 6.26981
0.121 -0.0117062 0.00433349 6.21258
0.1212 0.0135864 -0.00326442 6.15926
0.1214 0.00440589 -0.00316492 6.09683
0.1216 -0.00172629 0.00157926 6.03995
0.1218 -0.00716572 0.00806447 6.00119
0.122 0.00899534 0.00708896 5.9689
0.1222 0.00928516 -0.0155655 5.90459
0.1224 0.00908808 0.00103822 5.85582
0.1226 -0.00663864 -0.00422137 5.77804
0.1228 0.00418606 0.00980353 5.71706
0.123 0.00665197 -0.00752041 5.65492
0.1232 0.00772144 0.0058253 5.60743
0.1234 -0.0036813 0.0118492 5.54724
0.1236 -0.00455837 -0.00449109 5.48631
0.1238 0.0243505 -0.011716 5.44862
0.124 0.00186822 -0.00421911 5.41222
0.1242 -0.0210977 0.0329816 5.35194
0.1244 -0.00440314 0.00719696 5.27631
0.1246 0.0215736 -0.0183513 5.21394
0.1248 0.0164103 -0.0230154 5.15588
0.125 -0.00660672 0.0203742 5.13558
0.1252 -0.0262436 0.0162274 5.11613
0.1254 0.00553574 0.00730412 5.12737
0.1256 0.0158317 -0.0132558 5.12588
0.1258 0.014355 -0.0044089 5.14674
0.126 -0.00384612 0.0188631 5.17412
0.1262 -0.0155028 0.00109453 5.17929
0.1264 0.00247637 0.00339003 5.20161
0.1266 0.0084498 -0.0144775 5.21297
0.1268 -0.00076547 0.0121535 5.24207
0.127 -0.012766 -0.00538432 5.24369
0.1272 0.00812819 0.00826854 5.27076
0.1274 -0.00891344 -0.00382884 5.27764
0.1276 0.00947378 -0.00295915 5.3009
0.1278 0.00226813 -0.00456075 5.31065
0.128 0.000276011 0.00465345 5.33679
0.1282 -0.00306879 0.00877117 5.35433
0.1284 0.000630008 -0.00275362 5.3709
0.1286 0.00546412 -0.000933107 5.40079
0.1288 -0.0105199 0.00524791 5.42849
0.129 0.0145288 -0.00129916 5.46909
0.1292 0.0137934 -0.0168021 5.48269
0.1294 -0.000561035 0.00368242 5.49569
0.1296 -0.0141476 0.019181 5.51228
0.1298 -0.00993567 0.000267799 5.51965
0.13 0.0141764 -0.00160091 5.54754
0.1302 -0.00441191 -0.00478846 5.56088
0.1304 -0.00444924 0.0049527 5.57635
0.1306 -0.00603653 0.00505479 5.59659
0.1308 0.000391911 0.00107906 5.60892
0.131 0.0131811 -0.0113685 5.61026
0.1312 0.00138047 0.00384883 5.61081
0.1314 -0.00843373 0.0153841 5.61573
0.1316 -0.00196389 0.000705724 5.622
0.1318 0.0182705 -0.00372082 5.64027
0.132 0.00814531 -0.0112907 5.65691
0.1322 0.0024714 0.00528948 5.67405
0.1324 -0.010897 0.0172035 5.68249
0.1326 -0.00658228 0.00619582 5.68193
0.1328 0.0229622 0.00501634 5.69636
0.133 -0.0081914 -0.0135762 5.69148
0.1332 0.00502247 0.0147385 5.70879
0.1334 -0.0125993 -0.00794227 5.70712
0.1336 0.0163918 -0.00507504 5.73477
0.1338 0.0107825 -0.010448 5.74134
0.134 -0.0107001 0.00395407 5.74439
0.1342 -0.0100813 0.0231185 5.75465
0.1344 0.000836903 -0.0102082 5.75861
0.1346 0.0184359 -0.00927657 5.77432
0.1348 0.0088008 -0.0018518 5.76133
0.135 -0.0069286 0.00921816 5.75298
0.1352 -0.00315675 0.0120105 5.72996
0.1354 -0.00187215 -0.00190426 5.70425
0.1356 0.00869274 -0.00307688 5.68527
0.1358 -0.0020056 0.00162741 5.65892
0.136 -0.00797432 0.00142158 5.6349
0.1362 0.00649775 0.00115478 5.6188
0.1364 0.0053625 -0.0148254 5.5772
0.1366 0.00270217 0.00371955 5.5541
0.1368 -0.00851348 0.00140041 5.51291
0.137 -0.00200778 -0.00205636 5.47572
0.1372 0.00479249 -0.000534543 5.45278
0.1374 -0.0096976 -0.00224283 5.40799
0.1376 0.00820445 0.0130481 5.3763
0.1378 -0.00970805 -0.00984885 5.32158
0.138 0.0118463 0.000819891 5.2884
0.1382 -0.00414907 -0.00156363 5.2423
0.1384 -0.0100712 0.00844667 5.20796
0.1386 0.00313256 0.00724297 5.17555
0.1388 0.00577066 -0.0127116 5.13489
0.139 0.00741348 0.00472388 5.11075
0.1392 -0.00733569 -0.00191405 5.07417
0.1394 0.00642258 0.00786478 5.06232
0.1396 0.000254105 -0.0113999 5.0351
0.1398 0.000324069 0.00768889 5.02717
0.14 -0.00857443 0.00774463 5.00636
0.1402 0.0061536 -0.00436192 4.99067
0.1404 0.000471232 0.00610639 4.97314
0.1406 -0.00699996 -0.000404697 4.95253
0.1408 0.00824746 0.000671533 4.95447
0.141 0.00736827 -0.013902 4.94277
0.1412 -0.000378411 0.00208547 4.93933
0.1414 -0.013613 0.0117743 4.94053
0.1416 -0.00477545 -0.000464053 4.93926
0.1418 0.015429 -0.000906224 4.94208
0.142 -0.00480935 -0.010025 4.93014
0.1422 -0.00588812 0.00894272 4.93388
0.1424 -0.0147202 -0.00304362 4.92424
0.1426 0.01995 -0.00558071 4.93708
0.1428 -0.00265691 -0.00360972 4.93577
0.143 -0.00971975 0.00507472 4.93284
0.1432 0.000970831 0.0184053 4.94407
0.1434 0.00250527 -0.00933354 4.93926
0.1436 0.0141468 -0.00664052 4.9393
0.1438 -0.0158633 0.00394146 4.93507
0.144 0.00229651 0.00410937 4.93233
0.1442 0.002069 0.00497734 4.92698
0.1444 -0.00706129 -0.0042755 4.91772
0.1446 0.00617832 -0.00143491 4.91381
0.1448 -0.0060601 0.00204989 4.91058
0.145 -0.00659247 -0.0026615 4.91335
0.1452 0.00475482 -0.0020027 4.92469
0.1454 -0.00295655 -0.00124059 4.9372
0.1456 -0.00683553 -0.00398638 4.94952
0.1458 0.00831078 0.0145264 4.97192
0.146 -0.0190924 -0.00870131 4.95614
0.1462 0.0187915 0.00946579 4.98887
0.1464 -0.00920801 -0.00813582 4.97656
0.1466 0.00369511 0.00252104 4.99004
0.1468 -0.00673251 -0.00648383 4.99068
0.147 -0.000155425 0.00155377 5.0026
0.1472 0.00795307 0.00510979 5.01486
0.1474 -0.00699939 -0.0074647 5.00011
0.1476 0.0107551 0.0121864 5.01408
0.1478 -0.00447776 -0.001463 4.9981
0.148 0.00182389 0.00794299 4.99243
0.1482 -0.000196046 0.0114525 4.98526
0.1484 0.005057 -0.0076118 4.97194
0.1486 0.00639776 0.000101902 4.962
0.1488 -0.00421691 -0.00487753 4.9463
0.149 0.000620479 0.0149825 4.94311
0.1492 -0.000147673 -0.00835149 4.91342
0.1494 0.00680494 0.0100461 4.91081
0.1496 -0.00738017 0.00678697 4.89131
0.1498 4.20063e-05 -0.00723227 4.88343
0.15 0.00994137 0.00480248 4.87703
0.1502 -0.0130022 -0.00470456 4.85121
0.1504 0.00845895 0.01621 4.85424
0.1506 -0.0144033 -0.00761439 4.8304
0.1508 0.00531705 0.00429305 4.82596
0.151 0.00519954 0.000448016 4.81351
0.1512 -0.0113118 0.00191117 4.79308
0.1514 0.0048843 0.0178797 4.78108
0.1516 -0.000488159 -0.0187953 4.74521
0.1518 0.0121296 0.00890484 4.72728
0.152 -0.0136073 0.00480686 4.68752
0.1522 -0.0062129 0.00615766 4.66342
0.1524 -0.00640274 -0.00241788 4.63884
0.1526 0.0115207 0.00189574 4.62089
0.1528 -0.00145694 -0.00162361 4.59739
0.153 -0.00210682 -0.00025134 4.57923
0.1532 0.000246679 0.0143597 4.5695
0.1534 -0.0150179 -0.0113015 4.54357
0.1536 0.0253929 0.00471615 4.55102
0.1538 -0.00924337 -0.0155809 4.50015
0.154 0.00377938 0.0137045 4.50535
0.1542 -0.0107464 0.00319437 4.4813
0.1544 0.010802 0.00876087 4.46833
0.1546 -0.00787275 0.000752774 4.43143
0.1548 0.00269771 0.00014872 4.40651
0.155 -0.0125315 -0.000987263 4.3658
0.1552 0.00401737 -0.00229648 4.33967
0.1554 0.00945085 -2.05907e-05 4.30701
0.1556 -0.00418018 0.00265584 4.26223
0.1558 0.00160902 0.000288817 4.24128
0.156 0.000335664 0.00055842 4.20251
0.1562 -0.00321567 0.0011731 4.17812
0.1564 -0.00227008 0.00649751 4.16345
0.1566 0.0101867 0.0008144 4.1475
0.1568 -0.000262626 -0.000494585 4.12142
0.157 0.011921 -0.000404965 4.10055
0.1572 -0.012648 -0.000929782 4.07347
0.1574 0.00944738 0.00499805 4.05821
0.1576 0.00113722 -0.000880843 4.0333
0.1578 0.00117171 0.00298068 4.00131
0.158 0.0136482 -0.000880218 3.97204
0.1582 -0.0123693 -0.00565774 3.92707
0.1584 0.00677787 0.00786023 3.91049
0.1586 -0.0104353 -0.00679303 3.86995
0.1588 0.0150076 0.00784383 3.85417
0.159 -0.00707375 -0.00398462 3.82288
0.1592 0.00304951 0.00743943 3.8041
0.1594 -0.000802789 -0.000650122 3.76745
0.1596 -0.00451625 0.00157171 3.71895
0.1598 0.00459495 -0.00159372 3.68035
0.16 -0.00605528 -0.0101684 3.64357
0.1602 0.00278006 0.018409 3.62908
0.1604 0.00195568 -0.0130974 3.59459
0.1606 0.0056709 0.00595354 3.59245
0.1608 -0.00708312 0.00103799 3.57352
0.161 -0.000260353 -0.000227291 3.56101
0.1612 0.00569231 0.000568597 3.54796
0.1614 -0.000694003 -0.00762933 3.51566
0.1616 0.00984913 0.00849043 3.51272
0.1618 -0.0056992 -0.00765188 3.4823
0.162 0.00231055 0.0115778 3.47842
0.1622 -0.00441683 -0.00776321 3.45503
0.1624 0.00457419 0.00775408 3.4424
0.1626 -0.0134357 0.0019477 3.42088
0.1628 0.00689355 -0.00138264 3.40032
0.163 -0.00396966 0.00926296 3.37433
0.1632 0.00664721 -0.0020097 3.35635
0.1634 0.00152175 -0.00219192 3.34064
0.1636 -0.00758066 0.00300395 3.32253
0.1638 0.00888912 0.0039388 3.31967
0.164 -0.00577008 -0.0105318 3.29585
0.1642 -0.000899061 0.0107215 3.29635
0.1644 -0.00248896 0.00977618 3.28672
0.1646 0.00449096 -0.0128552 3.26931
0.1648 0.0164474 0.00186395 3.27442
0.165 -0.0101245 0.00214847 3.26508
0.1652 0.00944328 -3.60515e-05 3.27371
0.1654 -4.71117e-05 -0.0114528 3.25889
0.1656 0.00371576 0.00072886 3.25795
0.1658 -0.0135823 -0.00254034 3.2377
0.166 -0.00196078 -0.00443908 3.24037
0.1662 0.00656586 -0.00333918 3.23808
0.1664 -5.22141e-06 -0.00711869 3.22374
0.1666 0.0037153 0.0152696 3.22343
0.1668 -0.00859988 -0.00177821 3.22098
0.167 0.0037242 -0.00255967 3.22947
0.1672 0.00744933 -0.00673503 3.2279
0.1674 -0.00933187 0.00110294 3.23465
0.1676 0.000275524 0.0142359 3.24365
0.1678 -0.00696105 -0.00570674 3.23309
0.168 0.0140793 -0.000193361 3.24413
0.1682 -0.0100412 -0.000922275 3.24305
0.1684 -0.00431095 0.00924516 3.25043
0.1686 0.00437025 0.00250205 3.2466
0.1688 0.00465594 -0.00886012 3.24184
0.169 0.00595721 0.00668081 3.25388
0.1692 -0.0102856 -0.00724915 3.25702
0.1694 0.00557005 -0.00158044 3.26549
0.1696 0.00142991 -0.00654821 3.2517
0.1698 0.000192662 0.00354993 3.24954
0.17 0.00282704 -0.00338153 3.24817
0.1702 0.00123982 -0.00584103 3.25397
0.1704 0.00114488 0.00140351 3.2454
0.1706 -0.00138744 -0.00107258 3.2402
0.1708 0.00302764 -0.00162414 3.24482
0.171 0.00431031 -0.0021648 3.23294
0.1712 0.00417616 0.00548559 3.22882
0.1714 -0.0119872 -0.00687417 3.20704
0.1716 0.0048893 0.00346366 3.19949
0.1718 -0.00629571 -0.00382708 3.18939
0.172 0.00564786 0.0011601 3.19265
0.1722 -0.00202494 -0.00374756 3.17033
0.1724 -0.011302 0.00906835 3.17449
0.1726 0.00048375 -0.00325662 3.16715
0.1728 0.00157088 -0.0034977 3.16457
0.173 -0.000882169 0.00280074 3.15375
0.1732 -0.0111953 0.00362946 3.14807
0.1734 0.00184859 0.00148414 3.14568
0.1736 -5.74403e-05 -0.00972111 3.13209
0.1738 0.00455458 -0.00150055 3.13075
0.174 -0.00592056 -0.00124869 3.11956
0.1742 -0.00357367 0.000674004 3.10751
0.1744 0.00499806 -0.00543163 3.0941
0.1746 0.00328857 -0.015433 3.07524
0.1748 0.00072977 0.0161627 3.07302
0.175 -0.0183955 -0.00226949 3.05129
0.1752 0.024934 0.000920077 3.05415
0.1754 0.0023529 -0.00534541 3.04065
0.1756 0.00519466 0.00277386 3.02626
0.1758 0.00204203 0.00649287 3.01125
0.176 -0.0011885 -0.00364839 2.99052
0.1762 0.00874972 -0.00190586 2.97863
0.1764 -0.0058402 0.00367829 2.95335
0.1766 0.00359068 0.00226094 2.94563
0.1768 0.000188344 -0.0133419 2.91065
0.177 0.0039482 0.00152708 2.8929
0.1772 -0.00594651 0.00337191 2.86587
0.1774 -0.00353497 0.00134955 2.82624
0.1776 0.00619407 -0.00586692 2.79624
0.1778 -0.00286153 0.00293529 2.75401
0.178 -0.00243457 -0.000920354 2.70862
0.1782 -0.00118523 -0.00317309 2.67384
0.1784 -0.000622256 0.00113091 2.64545
0.1786 -0.00239969 -0.00350667 2.61865
0.1788 0.0025241 0.00168243 2.60495
0.179 -0.0015357 0.00167796 2.58673
0.1792 0.00193791 -0.00579392 2.55566
0.1794 -0.0116153 -0.00962493 2.53742
0.1796 0.00281474 0.00332433 2.52769
0.1798 -0.00383649 0.00301959 2.51691
0.18 0.00166706 -0.00475636 2.50621
0.1802 0.00131159 -0.00204689 2.50669
0.1804 -0.000671745 -0.00124852 2.50964
0.1806 0.00664198 0.00272148 2.51048
0.1808 -0.00512623 0.00453854 2.51128
0.181 -0.000836636 0.00537606 2.5047
0.1812 0.00136601 0.00534389 2.5072
0.1814 -0.00334235 0.000428026 2.50407
0.1816 0.000338729 0.0107725 2.50826
0.1818 -0.00541235 0.0010952 2.50989
0.182 0.00937156 0.00104738 2.51188
0.1822 -0.00243859 -0.00427845 2.50858
0.1824 -0.00741099 0.00152692 2.50684
0.1826 0.00713749 0.00337055 2.51064
0.1828 0.00175958 -0.0130298 2.50987
0.183 -0.00260476 0.0075543 2.51663
0.1832 -0.00692899 0.0032115 2.52249
0.1834 0.00951477 -0.000658803 2.53654
0.1836 -0.000192894 -0.00384001 2.55019
0.1838 -0.00863491 0.0077984 2.57124
0.184 -0.00287823 -0.00405941 2.57683
0.1842 0.0019961 -0.00870104 2.59117
0.1844 0.00355677 0.0064367 2.60599
0.1846 -0.0124267 0.00345095 2.61037
0.1848 0.0126131 -0.00616639 2.63051
0.185 0.00808814 -0.0101706 2.63629
0.1852 -0.0149028 0.0137339 2.64996
0.1854 0.00188618 -0.000427431 2.66117
0.1856 0.00911689 -0.0129934 2.6638
0.1858 -0.00161657 0.0041607 2.67414
0.186 -0.011593 0.000843808 2.67522
0.1862 0.0106104 0.00400128 2.70264
0.1864 -0.00485316 -0.0142989 2.70547
0.1866 0.000396351 0.0109499 2.73136
0.1868 -0.00798283 0.000467146 2.73007
0.187 0.0149921 -0.000698084 2.75062
0.1872 0.00123436 0.00040301 2.76432
0.1874 -0.0127502 0.0095922 2.78429
0.1876 0.000619159 -0.00457046 2.7885
0.1878 0.00769434 -0.0138169 2.8073
0.188 -0.0107691 0.01244 2.82034
0.1882 -0.00100173 0.00357011 2.83454
0.1884 0.00116915 -0.00662067 2.85399
0.1886 0.0109692 0.0047618 2.88484
0.1888 -0.0109683 0.0010693 2.89412
0.189 -0.00506329 0.00752 2.91866
0.1892 -0.00133649 -0.00644574 2.93479
0.1894 0.0103932 -0.0021026 2.95369
0.1896 -0.00926065 0.00631669 2.9759
0.1898 -0.00497356 0.00161187 2.99851
0.19 0.00762857 0.000426664 3.02687
0.1902 -0.0105987 -0.00461171 3.04482
0.1904 0.00415779 0.00917241 3.06964
0.1906 -0.00469289 -0.009646 3.08492
0.1908 0.0108178 0.00275716 3.10366
0.191 -0.000992439 -0.000333883 3.10429
0.1912 0.0013564 -0.00345581 3.12049
0.1914 0.00623398 0.00182039 3.13317
0.1916 -0.00660739 -0.00235155 3.14598
0.1918 0.00294041 0.00156945 3.16897
0.192 -0.0044801 -0.00630801 3.18406
0.1922 0.00907635 0.00446689 3.21634
0.1924 0.00190366 -0.0030545 3.22988
0.1926 -0.00504149 0.00342239 3.25222
0.1928 0.00387687 -0.00479566 3.27404
0.193 -0.000423093 0.000320118 3.29908
0.1932 -0.00235188 0.00694701 3.32232
0.1934 -0.00296973 0.00635696 3.3345
0.1936 0.010667 0.000995473 3.35542
0.1938 -0.00402473 -0.00197432 3.36723
0.194 4.6387e-05 0.00923664 3.39657
0.1942 -0.00104585 -0.000982365 3.39807
0.1944 0.00199754 0.00455319 3.42496
0.1946 -0.00591132 -0.00256541 3.42607
0.1948 0.00721644 0.00539306 3.44343
0.195 -0.00143522 0.00255024 3.45006
0.1952 -0.00129636 -0.000767179 3.45507
0.1954 0.00319729 0.00702653 3.46882
0.1956 0.00158812 0.00662299 3.48107
0.1958 0.000597494 -0.00533337 3.48467
0.196 0.00594589 -0.00433904 3.50282
0.1962 0.000669574 0.00215604 3.51747
0.1964 0.00409871 0.00182751 3.52885
0.1966 -0.00670729 -6.72697e-05 3.53915
0.1968 0.00724668 0.0037023 3.54998
0.197 5.95424e-05 0.00152996 3.56755
0.1972 0.00162549 -0.00227274 3.58109
0.1974 -0.00398147 -0.00304418 3.6014
0.1976 -0.0059788 -0.00508606 3.61565
0.1978 0.0067933 0.0125743 3.64499
0.198 -0.000485912 -0.00553186 3.66016
0.1982 0.0157867 0.00263562 3.69434
0.1984 -0.00960042 -0.00361741 3.72028
0.1986 -0.00147388 0.00342307 3.76631
0.1988 0.00424731 -0.00706467 3.81175
0.199 -0.00634599 -0.00837421 3.84731
0.1992 4.57824e-05 0.0162731 3.89341
0.1994 -0.0135679 0.00120846 3.91659
0.1996 0.0097089 -0.00573168 3.96383
0.1998 0.00329704 -0.00373078 3.9959
0.2 -0.00593181 0.00372363 4.03921