File: Post Processing/With ZBL potential/Pure Ni/Ni_Tensile_5KeV.def1.txt
# Fix print output for fix def1
-7.16814e-16 0.0993362 -0.381207 0.286145
0.0002 0.122048 0.0591609 0.478527
0.0004 -0.0816253 0.00159534 0.410045
0.0006 0.0253251 0.0267612 0.494363
0.0008 0.0113234 -0.034071 0.501449
0.001 0.00204883 0.0129733 0.547361
0.0012 -0.0102888 0.0113592 0.574382
0.0014 0.00500422 -0.00473874 0.607916
0.0016 0.0115104 -0.000118376 0.645555
0.0018 -0.00603829 -0.000621896 0.673328
0.002 -0.000121354 0.0122588 0.714154
0.0022 0.00186361 -0.00876584 0.740343
0.0024 0.00764506 0.000689173 0.780912
0.0026 -0.00934452 0.00211746 0.807646
0.0028 -0.000417456 0.0060101 0.846561
0.003 0.00342149 -0.00860418 0.876796
0.0032 0.00526414 0.000765732 0.917683
0.0034 -0.00590194 0.00180231 0.948089
0.0036 0.00120865 0.00402325 0.986099
0.0038 0.00500633 -0.00439972 1.02104
0.004 0.000889711 0.00129701 1.05758
0.0042 -0.00486429 0.00710768 1.09182
0.0044 0.00210988 -0.00421844 1.12717
0.0046 0.00963636 -0.00415715 1.16641
0.0048 -0.00779807 0.00603295 1.19925
0.005 -0.00388275 0.00393491 1.23623
0.0052 0.00881662 -0.00559681 1.27552
0.0054 0.00158053 -0.000195708 1.3101
0.0056 -0.00455483 0.00495235 1.34448
0.0058 -0.00203068 0.000956577 1.38205
0.006 0.00581705 -0.00308425 1.42127
0.0062 0.00129183 0.000582846 1.45666
0.0064 -0.00336501 0.00468914 1.49255
0.0066 0.00227227 -0.00120835 1.53006
0.0068 0.00534287 -0.00286584 1.5708
0.007 -0.00317444 0.00410369 1.60851
0.0072 -0.00374542 0.0058818 1.64391
0.0074 0.00527929 -0.00428102 1.68265
0.0076 0.00375601 -0.00214521 1.72021
0.0078 -0.00186776 0.00356023 1.75746
0.008 -0.000378407 0.00145633 1.79701
0.0082 0.00101567 0.000222778 1.83453
0.0084 0.00215009 -0.00168402 1.87278
0.0086 0.00155777 0.000165294 1.913
0.0088 -0.0030218 0.00324276 1.9507
0.009 0.000342296 0.000146419 1.99117
0.0092 0.00234395 -0.00172205 2.03169
0.0094 0.00291894 -0.00242176 2.069
0.0096 0.00329792 -0.000894529 2.10953
0.0098 -0.00508663 0.00563991 2.15096
0.01 -0.00462203 0.00476618 2.18875
0.0102 0.00848808 -0.00749311 2.23022
0.0104 0.00436871 -0.00327533 2.2696
0.0106 -0.0115138 0.00916883 2.30322
0.0108 -0.000377282 0.000893159 2.34573
0.011 0.007996 -0.00941399 2.38562
0.0112 0.00239257 0.00210635 2.42653
0.0114 -0.00800267 0.00427249 2.46348
0.0116 -0.000284713 0.00394947 2.50738
0.0118 0.00570067 -0.0066372 2.549
0.012 0.00312046 0.000269327 2.59023
0.0122 -0.00597928 0.00299957 2.62564
0.0124 0.00124955 -0.000475613 2.66932
0.0126 0.00313804 -0.00399174 2.71007
0.0128 0.00068667 0.00126206 2.75005
0.013 -0.000467422 0.00289822 2.79467
0.0132 0.00039781 0.00218801 2.83627
0.0134 -0.00079317 0.000790201 2.87442
0.0136 0.00354868 -0.00293097 2.91496
0.0138 0.0043377 -0.00268946 2.9553
0.014 -0.00503861 0.00378926 2.99473
0.0142 -0.0021769 0.00301962 3.03811
0.0144 0.00708361 -0.00435686 3.08183
0.0146 0.00345681 -0.00195107 3.12397
0.0148 -0.00747945 0.00668377 3.16328
0.015 -0.00532264 0.00730572 3.2046
0.0152 0.00860273 -0.0101714 3.24812
0.0154 0.0099874 -0.00668483 3.29373
0.0156 -0.00860937 0.0107743 3.33173
0.0158 -0.011268 0.00902463 3.37062
0.016 0.0133316 -0.00980042 3.41824
0.0162 0.0115773 -0.0102385 3.45829
0.0164 -0.00825104 0.0101188 3.49651
0.0166 -0.0105941 0.00721266 3.53667
0.0168 0.0103163 -0.00246534 3.5845
0.017 0.00740172 -0.0101441 3.62114
0.0172 3.76546e-05 0.00387015 3.66402
0.0174 -0.00926145 0.00462779 3.70286
0.0176 0.00385556 0.00141325 3.75215
0.0178 0.00505591 -0.00638768 3.79439
0.018 -0.00373648 0.00485455 3.83582
0.0182 -0.00459232 0.00300637 3.87814
0.0184 0.00563166 -0.0021529 3.92456
0.0186 0.00222984 -0.00378993 3.96264
0.0188 -1.0243e-05 0.000148063 4.00317
0.019 -0.00354887 0.00330452 4.04608
0.0192 -0.00189146 0.000379559 4.08708
0.0194 0.0039767 -0.00226925 4.13016
0.0196 0.00259412 -0.00346718 4.17025
0.0198 -0.00235158 0.00282593 4.2106
0.02 -0.00205442 0.00190739 4.25509
0.0202 0.00317736 -0.000946227 4.2984
0.0204 -0.000507855 -0.00304771 4.33904
0.0206 0.000592228 0.00227462 4.38351
0.0208 -0.00257644 0.00195699 4.42398
0.021 0.000688622 0.00110525 4.46953
0.0212 0.00384244 -0.00105807 4.51387
0.0214 -0.00107315 0.000744756 4.55426
0.0216 -0.00195159 0.000963665 4.59581
0.0218 0.00594102 -0.00519578 4.63806
0.022 0.00319095 -0.00135823 4.67975
0.0222 -0.00545473 0.00388919 4.72031
0.0224 -0.000661987 0.00340307 4.7641
0.0226 0.000418678 -0.00113665 4.80452
0.0228 0.00426219 -0.00154304 4.84746
0.023 0.00178728 -0.00314123 4.88518
0.0232 -0.000741055 0.00349513 4.92717
0.0234 -0.00127486 0.00245296 4.96782
0.0236 0.00169425 0.00163183 5.01147
0.0238 -0.00237668 -9.27426e-05 5.05266
0.024 0.00322064 -0.00236506 5.09806
0.0242 0.0013043 7.60437e-05 5.14221
0.0244 -0.00718768 0.00678996 5.1805
0.0246 -0.00505841 0.000500835 5.21994
0.0248 0.0130017 -0.00527849 5.2677
0.025 0.00726143 -0.0115473 5.3028
0.0252 -0.00386521 0.00544823 5.34198
0.0254 -0.0102713 0.00397124 5.3803
0.0256 -0.000236931 0.00514841 5.42685
0.0258 0.00202173 -0.00556288 5.46972
0.026 0.0101004 -0.00431135 5.51512
0.0262 0.000668307 -0.00400933 5.54986
0.0264 -0.00198256 0.00700062 5.58789
0.0266 -0.00598025 0.00528054 5.62554
0.0268 -0.00150045 -0.00118818 5.66586
0.027 0.0103331 -0.00668643 5.7123
0.0272 0.00394853 -0.00303739 5.75185
0.0274 -0.00835206 0.0084997 5.79278
0.0276 -0.00927844 0.00667226 5.83244
0.0278 0.003388 0.00183599 5.87867
0.028 0.00625639 -0.0112946 5.91458
0.0282 0.0115354 -0.00475268 5.95682
0.0284 -0.00343959 -0.000807009 5.98892
0.0286 -0.00609175 0.00985552 6.02778
0.0288 -0.00430409 0.00384706 6.06729
0.029 0.00351718 -0.00278259 6.10948
0.0292 0.00683409 -0.00193437 6.15223
0.0294 0.00454451 -0.00506273 6.18979
0.0296 0.00116643 0.00374332 6.22791
0.0298 -0.00551626 0.00173359 6.26284
0.03 0.0013803 0.00175136 6.30429
0.0302 -0.000594682 0.00111021 6.34239
0.0304 0.000920547 -0.000397797 6.3795
0.0306 0.00561548 -0.00534472 6.41921
0.0308 0.00318262 0.0017234 6.45807
0.031 -0.00753881 0.00577405 6.493
0.0312 -0.00307142 0.0038129 6.53626
0.0314 0.00724 -0.00381278 6.57908
0.0316 0.0063968 -0.00575996 6.61661
0.0318 0.00261445 -0.00192928 6.64896
0.032 0.000178676 0.00289976 6.67969
0.0322 -0.00410326 0.00392476 6.71538
0.0324 -0.00386665 0.00642849 6.75438
0.0326 -0.00268321 0.00109428 6.79211
0.0328 0.00520751 -0.00176849 6.83466
0.033 0.0108065 -0.00736963 6.87567
0.0332 0.00400155 -0.00393384 6.90784
0.0334 -0.00416812 0.00348157 6.93688
0.0336 -0.00338375 0.00403367 6.9725
0.0338 -0.00414611 0.00272938 7.00617
0.034 0.00176085 0.00212019 7.04576
0.0342 0.00398069 -0.00578467 7.08395
0.0344 0.00756305 -0.00233093 7.12117
0.0346 0.0051572 -0.0054431 7.1548
0.0348 0.00698312 0.000697917 7.18782
0.035 -0.00651665 0.00309054 7.21349
0.0352 -0.00331044 0.00702002 7.24879
0.0354 -0.0011692 0.000964519 7.28586
0.0356 0.00622035 -0.00268008 7.32687
0.0358 0.00632213 -0.00627154 7.36198
0.036 0.00261656 0.00268191 7.391
0.0362 -0.00615655 0.00241432 7.41717
0.0364 0.0040249 0.000359232 7.45779
0.0366 0.00870701 -0.00396349 7.49259
0.0368 0.00231601 -0.00346863 7.51989
0.037 0.00207018 0.00288933 7.55209
0.0372 -0.00291191 0.00110239 7.58109
0.0374 -0.00385383 0.00502948 7.61238
0.0376 -0.00158845 0.000688156 7.64423
0.0378 0.00408706 -0.00145042 7.68087
0.038 0.00708378 -0.00638991 7.71589
0.0382 0.0107644 -0.00367473 7.74826
0.0384 0.00382393 -0.00257216 7.77179
0.0386 0.00212446 0.00318343 7.79987
0.0388 -0.00146487 0.000511118 7.8254
0.039 -0.00488329 0.00593758 7.85462
0.0392 -0.00322882 0.000555901 7.88611
0.0394 0.00778062 -0.00480639 7.92041
0.0396 0.00780592 -0.00375246 7.95096
0.0398 0.0034354 -0.0045748 7.97696
0.04 0.00622698 -0.00192177 8.00196
0.0402 0.00256131 -0.00113399 8.0216
0.0404 0.00111941 0.00126822 8.04465
0.0406 0.00155234 -0.000803535 8.07407
0.0408 0.00220767 0.00152295 8.1018
0.041 0.00334006 0.000301926 8.13069
0.0412 0.00209402 -0.00202789 8.15677
0.0414 0.00459725 -0.000297721 8.18515
0.0416 0.00512166 -0.00540457 8.21208
0.0418 0.00752682 -0.00152531 8.238
0.042 -0.00076423 -0.00310741 8.25685
0.0422 0.0037803 0.00183524 8.28301
0.0424 0.00193599 -0.00164401 8.30349
0.0426 0.00535686 -0.0021923 8.33055
0.0428 0.00565601 -0.00395855 8.35198
0.043 0.00600972 -0.00112769 8.37478
0.0432 0.00262908 -0.00216514 8.39152
0.0434 0.00254807 -0.00115059 8.41153
0.0436 0.00171211 0.000782501 8.43346
0.0438 0.00311836 -0.000657545 8.45605
0.044 0.00412724 -0.00321458 8.48041
0.0442 0.00963517 -0.00523614 8.50623
0.0444 0.0119561 -0.00714506 8.52729
0.0446 0.00600025 -0.00155494 8.54059
0.0448 -0.00179949 -0.000504086 8.55344
0.045 0.00322274 0.0029436 8.57739
0.0452 0.000400859 -0.00350016 8.59752
0.0454 0.00620095 -0.00083488 8.62341
0.0456 0.00719174 -0.00695243 8.64292
0.0458 0.00951488 -0.00317682 8.66032
0.046 0.00518619 -0.00476004 8.67356
0.0462 0.00471904 -0.00227582 8.69262
0.0464 0.00122273 -0.00134973 8.70803
0.0466 -0.00113721 0.000943396 8.72653
0.0468 0.00071481 0.00401908 8.75071
0.047 -0.000478856 -0.000325413 8.77604
0.0472 0.00553962 6.31837e-05 8.80824
0.0474 0.00283772 -0.00756193 8.83152
0.0476 0.00951968 -0.00414659 8.85475
0.0478 0.00819607 -0.00459311 8.87132
0.048 -0.00164804 0.00219523 8.88502
0.0482 -0.00372027 0.00288998 8.90494
0.0484 0.00190345 -0.000128521 8.93237
0.0486 0.00638648 -0.00250865 8.95856
0.0488 0.00546809 -0.00688064 8.9781
0.049 0.00670694 0.000191157 8.99846
0.0492 -0.00214909 -0.000150247 9.01205
0.0494 -8.84542e-05 0.00396493 9.03654
0.0496 0.00216694 -0.00226761 9.06098
0.0498 0.00506132 -0.00135155 9.08657
0.05 -0.00212011 -0.000885135 9.1063
0.0502 -0.00256186 0.00155625 9.1306
0.0504 0.00432758 0.00049502 9.15798
0.0506 0.00241322 -0.00320307 9.18268
0.0508 0.00442541 -0.00113413 9.20638
0.051 0.00135852 -0.00347995 9.22674
0.0512 0.000659148 0.00428476 9.24852
0.0514 -0.000262983 0.00123251 9.27049
0.0516 1.18221e-05 -0.000395401 9.29498
0.0518 0.00242379 0.000267099 9.32091
0.052 0.00143391 -0.00381198 9.34619
0.0522 0.0041551 0.00101654 9.37166
0.0524 0.0033394 -0.00504396 9.39293
0.0526 0.0022477 0.000706233 9.41269
0.0528 -0.00459111 0.00499558 9.43231
0.053 -0.0048511 0.00411175 9.45934
0.0532 0.0016345 0.0016054 9.49186
0.0534 0.00825364 -0.00574539 9.52487
0.0536 0.0125828 -0.0065258 9.55075
0.0538 0.000873608 -0.00323433 9.56515
0.054 -0.00542996 0.00682034 9.58187
0.0542 -0.00714207 0.00564813 9.60575
0.0544 -0.00114678 -0.00136838 9.63468
0.0546 0.00853559 -0.00337471 9.66893
0.0548 0.00761982 -0.00618292 9.6917
0.055 0.00771439 0.000134306 9.71546
0.0552 -0.00298449 0.00195552 9.7306
0.0554 -0.00600031 0.00554387 9.75241
0.0556 -0.00272357 -0.000399499 9.7814
0.0558 0.00314585 -0.00363398 9.81128
0.056 0.0059511 0.00123452 9.84033
0.0562 0.000233693 -0.00387308 9.86199
0.0564 0.00137743 0.00568335 9.888
0.0566 -0.00275815 -0.00132481 9.91123
0.0568 0.00363998 -0.00108692 9.93827
0.057 0.00233568 0.0026754 9.96295
0.0572 -0.00230265 -0.00450714 9.98551
0.0574 0.00253983 0.0057239 10.0142
0.0576 -0.00362133 -0.00309829 10.0379
0.0578 0.00278808 0.000452603 10.0667
0.058 0.00147993 -0.00225132 10.0904
0.0582 0.00164507 -0.0065588 10.1128
0.0584 0.00642763 0.00498562 10.1393
0.0586 -0.0102385 0.000558647 10.1557
0.0588 -0.000565524 0.00748496 10.1884
0.059 0.00107339 -0.00365361 10.2168
0.0592 0.00881593 -0.00533122 10.248
0.0594 0.00492933 -0.00244456 10.2698
0.0596 -0.00588489 0.00374763 10.2894
0.0598 -0.00755382 0.00941061 10.3153
0.06 0.00117665 -0.00217616 10.3457
0.0602 0.0135222 -0.0053525 10.3785
0.0604 0.0054845 -0.00414935 10.3993
0.0606 -0.00589833 0.00396846 10.4198
0.0608 -0.00213077 0.00732393 10.4456
0.061 -0.000189616 -0.00384034 10.4722
0.0612 0.00846196 -0.00026243 10.5038
0.0614 0.00218043 -0.00372094 10.5268
0.0616 -0.00107094 0.00351551 10.5507
0.0618 -0.000452392 0.00389112 10.5756
0.062 -0.00114676 -0.00154321 10.6014
0.0622 0.00205606 0.0011996 10.6287
0.0624 0.00246061 -0.00156258 10.6561
0.0626 0.00277765 -0.00306625 10.6828
0.0628 0.000267218 0.00345037 10.709
0.063 -0.0051172 0.00228525 10.7312
0.0632 0.000463897 0.00198416 10.7599
0.0634 0.00530199 -0.00473709 10.7882
0.0636 0.00627662 -0.00133569 10.8133
0.0638 -0.00355754 0.0018516 10.8349
0.064 -0.000831024 0.00127295 10.8599
0.0642 -0.000476094 0.00100047 10.8868
0.0644 0.000136454 -0.00210865 10.9137
0.0646 0.00521749 0.000505923 10.9417
0.0648 0.000612046 -0.00280469 10.9655
0.065 -0.00142355 0.00130057 10.9896
0.0652 -0.00202031 0.00647305 11.0177
0.0654 -0.0027062 6.31271e-05 11.046
0.0656 0.00353128 0.000610529 11.0772
0.0658 0.00367506 -0.00591141 11.104
0.066 0.00663432 -0.00214555 11.1314
0.0662 0.000580072 0.00379992 11.1534
0.0664 -0.00905651 0.000306312 11.1734
0.0666 0.00281273 0.00306924 11.2053
0.0668 0.00251646 -0.00292442 11.2324
0.067 0.00103544 -0.000744963 11.2583
0.0672 0.00156426 0.000529952 11.2842
0.0674 -0.00013328 0.000742035 11.3078
0.0676 0.000605463 0.00117303 11.3336
0.0678 -0.000543213 -0.00211585 11.3596
0.068 -2.48103e-05 0.00220838 11.3871
0.0682 -0.00187549 0.00190966 11.4137
0.0684 0.00255385 -0.000472605 11.4434
0.0686 0.00367371 -0.00379852 11.4701
0.0688 0.000659499 -0.000483841 11.4926
0.069 -0.00268162 0.00439408 11.5178
0.0692 -0.00292422 -0.00173127 11.5423
0.0694 0.00106728 -4.8273e-05 11.5699
0.0696 0.00272613 -0.00149269 11.5971
0.0698 0.00392816 0.000381455 11.6245
0.07 -0.0040877 0.00241211 11.6469
0.0702 -0.000650968 0.00301861 11.6762
0.0704 0.00262644 -0.00395329 11.7038
0.0706 0.0043647 -0.00398502 11.7319
0.0708 -0.000252151 0.00373334 11.756
0.071 -0.00601856 0.00542821 11.7813
0.0712 -0.00229509 0.0013233 11.8104
0.0714 0.00851917 -0.00369431 11.8415
0.0716 0.0100169 -0.0062058 11.8682
0.0718 -0.00081423 -0.00094783 11.8888
0.072 -0.00661366 0.00911014 11.9121
0.0722 -0.00445933 -0.00324255 11.9376
0.0724 0.00322641 -0.00186669 11.9679
0.0726 0.00202394 -0.000591997 11.9936
0.0728 -0.00233887 -0.00148683 12.017
0.073 0.00315486 0.00144219 12.0466
0.0732 -0.00150976 -0.00511899 12.0701
0.0734 -0.00158192 0.00319546 12.0964
0.0736 -0.00199386 0.00252449 12.123
0.0738 -0.00259334 -0.00613252 12.1489
0.074 0.00755046 0.00241752 12.1803
0.0742 -0.00162892 -0.00607355 12.2027
0.0744 -0.00174552 0.0011208 12.229
0.0746 -0.000356469 0.00471634 12.2559
0.0748 -0.0021001 -0.00416883 12.2805
0.075 0.00344829 0.00314053 12.3096
0.0752 -0.000576077 -0.00212505 12.333
0.0754 0.0019733 -0.0010751 12.3604
0.0756 0.00179991 0.000505903 12.3869
0.0758 -0.00496941 2.2868e-05 12.4101
0.076 -0.00082431 0.00630971 12.4408
0.0762 0.00295403 -0.00468524 12.4689
0.0764 0.00555533 -0.00587723 12.4968
0.0766 0.00139545 0.00367355 12.5215
0.0768 -0.00508392 0.00172638 12.5447
0.077 -0.000639659 0.00320357 12.5726
0.0772 0.00412446 -0.00136488 12.6007
0.0774 -0.000888765 -0.00656338 12.6248
0.0776 -0.000456462 0.00455627 12.6515
0.0778 -0.000333404 0.00100544 12.6763
0.078 0.00123869 -0.0046817 12.7031
0.0782 0.000882684 0.00140662 12.7281
0.0784 -0.00460679 0.000877024 12.7528
0.0786 4.39985e-05 0.000944438 12.7816
0.0788 0.00407187 -0.00313649 12.8091
0.079 -5.59521e-05 -0.00185171 12.8333
0.0792 -0.00144035 0.0040297 12.8593
0.0794 0.000197201 0.00031068 12.8851
0.0796 0.00324382 -0.00185754 12.9109
0.0798 0.000290938 -0.002236 12.936
0.08 -0.00135381 0.0038136 12.9635
0.0802 -0.00299469 0.00453522 12.9907
0.0804 0.00148587 -0.00455932 13.0182
0.0806 0.00653513 -0.00120058 13.0463
0.0808 -0.0031751 -0.000731646 13.068
0.081 -0.00390847 0.00180186 13.0932
0.0812 0.00364976 0.0016486 13.1219
0.0814 0.000194823 -0.00645291 13.1452
0.0816 -0.0011999 0.00361245 13.1722
0.0818 -0.00210042 0.00387836 13.1988
0.082 0.000558116 -0.0056817 13.2253
0.0822 0.00479327 -0.00206353 13.2534
0.0824 -0.000556561 -0.00163531 13.2764
0.0826 -0.00679178 0.00272986 13.2998
0.0828 -0.000913518 0.00326231 13.3287
0.083 0.0047924 -0.0058935 13.3554
0.0832 0.0039744 -0.00434251 13.3807
0.0834 -0.00168079 0.0054307 13.4043
0.0836 -0.00513021 0.0012364 13.4281
0.0838 0.00161977 -0.00202547 13.4578
0.084 0.00262666 -0.000262035 13.4839
0.0842 -0.00192877 -0.00111665 13.5104
0.0844 0.000646427 0.0012764 13.5379
0.0846 0.00292438 -0.000827891 13.5639
0.0848 -0.00100322 -0.000161052 13.587
0.085 0.00142138 0.00377539 13.6143
0.0852 -0.00390574 -0.000287164 13.6369
0.0854 0.00184465 -0.00145368 13.6652
0.0856 0.00437907 -0.0026552 13.6918
0.0858 -0.00241723 -0.00141807 13.7156
0.086 -0.00233482 0.00302299 13.7414
0.0862 0.00170405 0.00253093 13.7699
0.0864 -0.000471799 -0.00472264 13.7946
0.0866 7.43183e-07 0.000885155 13.8214
0.0868 -0.000144316 0.00132666 13.8483
0.087 -0.000177777 -0.00456828 13.8729
0.0872 0.00327449 0.00304177 13.8999
0.0874 -0.00131486 0.00182444 13.9233
0.0876 -0.00012129 -0.000169764 13.9487
0.0878 0.00236592 0.000707332 13.9754
0.088 0.00117759 -0.00358006 14.001
0.0882 0.00293348 0.000901239 14.028
0.0884 -0.00301007 0.00508456 14.0531
0.0886 -0.00208494 -0.00175752 14.0781
0.0888 0.00367068 -0.00238387 14.1048
0.089 0.00256071 -0.00142209 14.1298
0.0892 -0.00357531 0.00215846 14.1539
0.0894 0.000147297 0.00233598 14.1816
0.0896 0.00141628 -0.00303005 14.2072
0.0898 7.28689e-05 -0.000222866 14.233
0.09 -0.000124223 0.00172384 14.2596
0.0902 -0.00111964 -0.00075673 14.2848
0.0904 0.00160885 -0.00108708 14.3103
0.0906 0.00499672 -1.75511e-05 14.3368
0.0908 -0.00208293 0.000408896 14.3607
0.091 -0.00244843 0.00338369 14.3849
0.0912 -0.000881442 0.000869977 14.4114
0.0914 0.00566417 -0.00288615 14.4397
0.0916 0.00316346 -0.00134489 14.4655
0.0918 -0.00508878 0.00171787 14.4899
0.092 -0.000555379 0.00291874 14.5175
0.0922 0.00404549 -0.000720287 14.5447
0.0924 0.00142365 -0.00401096 14.5687
0.0926 0.00225852 0.00178064 14.5939
0.0928 -0.00424861 0.00401265 14.6164
0.093 -0.00457251 -0.00127189 14.6409
0.0932 0.0074908 -0.00309386 14.6702
0.0934 0.00320191 0.000416409 14.6942
0.0936 -0.00624343 0.0033911 14.7164
0.0938 0.000487443 0.00138632 14.7443
0.094 0.0039834 -0.00380476 14.772
0.0942 0.00185624 -0.00097444 14.7969
0.0944 -0.00295941 0.0042822 14.8207
0.0946 -0.00124793 0.00135702 14.8474
0.0948 0.00424578 -0.0019187 14.8743
0.095 0.00450321 -0.00467355 14.8996
0.0952 -0.000332535 0.0011295 14.9232
0.0954 -0.00597421 0.00686316 14.9456
0.0956 -0.00176056 0.000175043 14.9738
0.0958 0.0076665 -0.00466932 15.0034
0.096 0.000263581 -0.00257269 15.0261
0.0962 -0.00514468 0.0036337 15.0493
0.0964 -0.000474091 -2.05776e-05 15.0759
0.0966 0.00286387 -0.00369226 15.1029
0.0968 -0.00133985 0.0018304 15.1268
0.097 -0.00122549 0.0041169 15.1525
0.0972 -0.000643951 -0.00519232 15.1784
0.0974 0.00712161 -0.00198847 15.2081
0.0976 0.00195291 0.000973267 15.231
0.0978 -0.00756215 0.00210767 15.2531
0.098 -0.00077065 0.00278971 15.2805
0.0982 0.00755006 -0.00302977 15.3092
0.0984 0.00136137 -0.00506894 15.3322
0.0986 -0.0032392 0.00589916 15.3565
0.0988 -0.00115678 0.00381125 15.3815
0.099 0.00286114 -0.00554343 15.4083
0.0992 0.00325083 -0.00153286 15.4332
0.0994 -0.00492672 0.00326294 15.4566
0.0996 -0.000863876 -0.000239134 15.484
0.0998 0.00542919 -0.00250913 15.512
0.1 0.00265038 -0.00376147 15.5362
0.1002 -0.00205938 0.00286485 15.5601
0.1004 -0.00496831 0.00438516 15.5836
0.1006 0.000576701 -0.00156501 15.61
0.1008 0.00508439 -0.00622947 15.6365
0.101 0.00033671 0.00254089 15.6601
0.1012 -0.00463222 0.00562932 15.6836
0.1014 0.00188656 -0.000912332 15.7109
0.1016 0.00441345 -0.00536383 15.7357
0.1018 -0.00111055 0.000319407 15.7591
0.102 -0.00281496 0.00553339 15.7847
0.1022 -0.000380203 -0.00224578 15.8106
0.1024 0.00514816 -0.00138075 15.8387
0.1026 -0.000741082 -0.000966417 15.8626
0.1028 -0.00198481 0.00171634 15.8863
0.103 0.00153359 0.00213808 15.911
0.1032 0.000676303 -0.00386315 15.9356
0.1034 0.00278858 0.000428462 15.9616
0.1036 -0.00323861 0.00154449 15.9865
0.1038 -0.00253074 -0.000567908 16.0127
0.104 0.00404283 -0.000611611 16.0417
0.1042 -0.00169413 -0.00502678 16.0641
0.1044 -0.00282351 0.00171865 16.0893
0.1046 -4.66533e-05 0.000804273 16.1155
0.1048 -0.000304287 -0.00324111 16.1399
0.105 0.00196258 0.00224706 16.1641
0.1052 -0.00115726 0.000307183 16.1881
0.1054 -0.00260323 -0.00208841 16.2121
0.1056 0.00319539 0.00054179 16.2399
0.1058 0.000317712 -0.00373826 16.2651
0.106 -0.00130314 0.00323978 16.2892
0.1062 -0.00016102 0.00481732 16.3134
0.1064 0.000561722 -0.00562427 16.3386
0.1066 0.00518508 -0.000689694 16.3651
0.1068 -0.00273928 0.00207984 16.388
0.107 -0.00465148 0.00113823 16.412
0.1072 0.00474582 -0.000240588 16.4414
0.1074 0.00274378 -0.0019328 16.4657
0.1076 -0.00138973 -0.000343363 16.4878
0.1078 0.00226919 0.00398605 16.5137
0.108 -0.00245812 -0.00273431 16.5376
0.1082 -0.000330664 -0.00143169 16.5635
0.1084 0.00438053 0.00382993 16.5908
0.1086 -0.00320089 5.34303e-05 16.6113
0.1088 -0.0013586 -8.60234e-05 16.6355
0.109 0.00560831 0.000254629 16.6627
0.1092 0.000185276 -0.00389475 16.6842
0.1094 -0.000595101 0.00274908 16.7077
0.1096 -0.00315183 0.00203924 16.7308
0.1098 -0.00108835 -0.00182271 16.7561
0.11 0.00367492 0.000783156 16.783
0.1102 -0.000606863 -0.00111812 16.8067
0.1104 -3.48389e-05 -0.000899296 16.8322
0.1106 0.00118996 0.00271509 16.855
0.1108 -0.00153258 -0.00161886 16.8786
0.111 -0.000672945 -0.000628221 16.9026
0.1112 0.00174621 0.00234385 16.9272
0.1114 -0.00147689 -0.00491983 16.95
0.1116 0.00151004 -0.000845671 16.974
0.1118 0.0016137 0.00231241 16.998
0.112 -0.00332617 0.00128689 17.0211
0.1122 0.00297028 0.000508862 17.0481
0.1124 0.00258106 -0.000897786 17.0729
0.1126 -0.000345592 -0.000138896 17.0954
0.1128 0.00310989 0.00088492 17.1185
0.113 0.00158411 0.000143818 17.14
0.1132 -0.00114459 0.00136968 17.1594
0.1134 0.00031714 0.000361339 17.1812
0.1136 0.000383512 0.000361253 17.2028
0.1138 0.00137936 -0.00251048 17.2227
0.114 0.000367523 -0.00280924 17.2408
0.1142 0.000754074 0.00233537 17.2574
0.1144 -0.00115452 0.00170728 17.2722
0.1146 0.00139086 -0.00193198 17.2866
0.1148 0.00338711 -0.000538162 17.3011
0.115 -0.000218684 0.00104952 17.3089
0.1152 -0.00187205 -0.00105901 17.3126
0.1154 0.00264542 -0.000897428 17.3182
0.1156 0.00251404 0.000930764 17.3181
0.1158 -0.00463398 -0.000870444 17.3121
0.116 0.000673164 0.00228371 17.3041
0.1162 0.00113588 -0.000345467 17.2951
0.1164 -0.00116085 -0.00322515 17.2799
0.1166 0.00630123 0.00322079 17.2632
0.1168 -0.000853091 -0.000746972 17.2361
0.117 -0.00216396 -0.000627485 17.1987
0.1172 0.00493499 0.00336319 17.1542
0.1174 0.000133652 0.00105659 17.09
0.1176 -0.0011885 0.00241927 17.0112
0.1178 0.000369159 0.00640912 16.9127
0.118 0.00188073 -0.00135106 16.8083
0.1182 0.00704964 -0.00316004 16.6972
0.1184 0.0100549 0.00248402 16.5775
0.1186 -0.00116092 -0.00109082 16.4427
0.1188 0.00370411 0.00866764 16.3092
0.119 0.00535117 0.00483042 16.1602
0.1192 -0.00238887 0.00551987 15.9977
0.1194 0.00602967 0.00698497 15.8265
0.1196 0.00664704 -0.00583211 15.6519
0.1198 0.0161891 -0.00306935 15.47
0.12 0.0116032 0.00313393 15.2864
0.1202 0.000806036 0.00141115 15.087
0.1204 0.0140002 0.00964149 14.8883
0.1206 0.0080792 0.00229525 14.6709
0.1208 0.00833782 0.00540286 14.4482
0.121 0.000213617 0.0143034 14.2171
0.1212 0.00744379 0.0131378 13.983
0.1214 0.000959187 0.00779829 13.7159
0.1216 -0.00426508 0.0028972 13.4179
0.1218 0.0154726 0.0154587 13.1392
0.122 0.0117895 -0.0238957 12.8426
0.1222 0.0237751 0.00560213 12.5403
0.1224 0.00102689 0.00401039 12.2175
0.1226 0.00664413 0.0147201 11.8924
0.1228 0.00222267 0.022014 11.5525
0.123 -0.00860901 0.0062604 11.204
0.1232 0.0150748 0.0205714 10.8638
0.1234 0.00744665 -0.00977274 10.5085
0.1236 0.0210343 0.000822865 10.1884
0.1238 0.0122175 -0.00187705 9.86856
0.124 0.0207105 -0.0136979 9.56082
0.1242 0.030671 -0.00280017 9.26721
0.1244 0.01179 -0.00578722 8.96037
0.1246 0.0296593 -0.00995799 8.65865
0.1248 0.0260236 -0.0205768 8.34724
0.125 0.0192629 0.0056198 8.06964
0.1252 0.0146059 -0.0162204 7.77815
0.1254 0.0288559 -0.0112934 7.50282
0.1256 0.0275955 -0.00915639 7.2259
0.1258 0.020125 -0.00442979 6.99859
0.126 0.0205334 -0.0146369 6.77286
0.1262 0.0328891 -0.00584651 6.56927
0.1264 0.0179641 -0.0207323 6.33923
0.1266 0.0182041 0.011623 6.12
0.1268 -0.000155032 0.0100243 5.90527
0.127 0.00719851 -0.00368621 5.71662
0.1272 0.0299256 -0.0137346 5.54351
0.1274 0.0074208 -0.000641403 5.35256
0.1276 -0.000644783 0.0117008 5.19035
0.1278 0.0118181 -0.0103915 5.03471
0.128 0.0201834 -0.00127137 4.90184
0.1282 0.0191857 -0.0159072 4.73838
0.1284 0.00854417 0.00908478 4.59662
0.1286 -0.0105824 0.00651461 4.45479
0.1288 0.0121386 -0.000642926 4.32584
0.129 0.00808917 -0.0106607 4.22988
0.1292 0.0151943 -0.00851473 4.16784
0.1294 -0.000184899 0.00518258 4.11004
0.1296 -0.0116408 0.00747677 4.05453
0.1298 0.00923478 -0.0115501 4.00894
0.13 0.0131386 -0.0141075 3.98048
0.1302 0.013114 -0.0122293 3.96227
0.1304 0.000297347 0.00917446 3.9373
0.1306 -0.00247841 0.00199036 3.8908
0.1308 0.01392 -0.000994694 3.8645
0.131 0.00374811 -0.00605456 3.80254
0.1312 0.00656263 0.00632878 3.76457
0.1314 0.0040563 0.00765008 3.70347
0.1316 -0.00997836 -0.00673966 3.63612
0.1318 0.00810012 0.0111318 3.60718
0.132 0.00733903 -0.0156947 3.56192
0.1322 0.0151747 -0.0063128 3.52629
0.1324 -0.00812223 0.00706886 3.49264
0.1326 -0.0101104 0.0119104 3.46689
0.1328 -0.000848865 -0.0046173 3.46948
0.133 0.0162348 -0.00647532 3.44989
0.1332 -0.00765803 0.00689838 3.42788
0.1334 -0.00539134 0.0212915 3.41149
0.1336 -1.25053e-05 -0.00672374 3.39773
0.1338 0.015507 -0.0114277 3.41345
0.134 -0.00404934 0.000470796 3.41134
0.1342 -0.0090589 0.00938039 3.40827
0.1344 0.0133237 0.00362321 3.40222
0.1346 0.00935497 -0.0135672 3.37168
0.1348 0.00197893 0.0096885 3.37576
0.135 -0.0189055 0.00320687 3.33941
0.1352 0.0131862 0.00902401 3.34705
0.1354 -0.00672829 -0.0117507 3.33679
0.1356 0.00520212 0.00384062 3.3471
0.1358 -0.0104695 0.00258466 3.34736
0.136 0.00517747 0.00239433 3.3529
0.1362 0.00271785 0.00395581 3.34855
0.1364 0.00204497 -0.00724666 3.33405
0.1366 -0.000542461 0.0110776 3.32851
0.1368 -0.000559638 -0.00760421 3.32131
0.137 0.0179695 -0.0082288 3.32131
0.1372 -0.00367496 -0.00492579 3.31759
0.1374 -0.00499779 0.0197337 3.33097
0.1376 -0.0165418 -0.00778802 3.29833
0.1378 0.0269105 0.00465046 3.31377
0.138 -0.00526478 -0.00378868 3.29053
0.1382 0.00809587 0.00830702 3.28072
0.1384 0.00400575 -0.00590519 3.24758
0.1386 0.00480041 0.00710745 3.22396
0.1388 0.00233548 0.00793552 3.2192
0.139 -0.00610224 -0.0115648 3.18614
0.1392 0.0121519 0.0134854 3.19017
0.1394 -0.0119769 -0.00973843 3.15213
0.1396 0.00777298 0.00513743 3.15487
0.1398 0.00738233 -0.017016 3.14751
0.14 0.000962092 0.0192817 3.14769
0.1402 -0.00281848 -0.00834522 3.14223
0.1404 0.00831314 -0.00831316 3.13955
0.1406 0.0149185 -0.00426377 3.12487
0.1408 -0.00847032 0.00240205 3.11079
0.141 0.00347432 0.011142 3.11139
0.1412 -0.00961495 -0.00713552 3.10132
0.1414 0.0163576 -0.00375059 3.12296
0.1416 0.00507857 -0.0128613 3.12131
0.1418 -0.000386161 0.00140273 3.1415
0.142 -0.00750094 0.0102473 3.14579
0.1422 0.00999909 0.0030893 3.1584
0.1424 0.00492317 -0.00600861 3.16028
0.1426 0.00540333 -0.000137874 3.17453
0.1428 -0.00753294 0.00576637 3.16892
0.143 0.000668707 0.00186404 3.17757
0.1432 0.00701018 -0.0126646 3.17175
0.1434 -0.00031821 0.00507763 3.18006
0.1436 -0.0117364 0.000502401 3.18113
0.1438 0.0172374 0.00578018 3.20117
0.144 -0.0127761 -0.00841346 3.19509
0.1442 0.00458692 0.014283 3.20001
0.1444 -0.00447241 -0.0122615 3.18851
0.1446 0.0065125 0.00432767 3.19134
0.1448 -0.00863604 0.000784108 3.18292
0.145 0.00327444 -0.00261723 3.17657
0.1452 0.00147505 0.0017624 3.1714
0.1454 0.00618086 0.000217272 3.19474
0.1456 0.00391117 0.00478577 3.20259
0.1458 -0.00932829 -0.000922522 3.19039
0.146 0.00514681 0.00806214 3.20237
0.1462 -0.0120094 -0.00814226 3.19589
0.1464 0.00969045 0.00621507 3.19939
0.1466 -0.00625845 0.00230944 3.17801
0.1468 -0.00214252 -0.00202949 3.17411
0.147 -0.00144947 0.00250794 3.15768
0.1472 -0.00360565 -0.00312135 3.14576
0.1474 0.00321031 0.00247128 3.13163
0.1476 0.0130949 0.00584279 3.11655
0.1478 -0.0081055 -0.000790801 3.09396
0.148 -0.000783883 0.00512141 3.09274
0.1482 -0.00108216 -0.00779294 3.09523
0.1484 0.00882574 0.00396326 3.09098
0.1486 -0.0127358 -0.00244347 3.06913
0.1488 -0.00148605 0.0100795 3.06962
0.149 0.00213591 -0.0124073 3.0445
0.1492 -0.000834107 -0.000928852 3.03776
0.1494 -0.00610197 0.0144821 3.0285
0.1496 0.00177758 -0.00512908 3.0234
0.1498 0.0167045 -0.00566668 3.01909
0.15 -0.0129097 3.67816e-05 3.00613
0.1502 0.00139338 0.0156656 3.00757
0.1504 0.00111333 -0.0144814 2.98824
0.1506 0.00773308 -0.00137791 2.99325
0.1508 -0.0132858 0.00278562 2.99856
0.151 0.00513946 0.00405919 3.01592
0.1512 0.000693557 -0.00368105 3.0226
0.1514 0.0142484 -1.49636e-05 3.03412
0.1516 -0.00449879 0.00168016 3.04166
0.1518 0.00118673 0.000249941 3.0479
0.152 0.00822455 -0.000839145 3.06043
0.1522 -0.0151059 -0.000982591 3.05724
0.1524 0.0077033 0.00760289 3.06621
0.1526 -0.00479316 -0.0149408 3.06636
0.1528 0.00558831 0.00617248 3.08612
0.153 0.000881482 0.00434672 3.08423
0.1532 -0.00112976 0.00294303 3.08865
0.1534 0.0101424 0.00314052 3.09448
0.1536 0.00400849 -0.00749682 3.08355
0.1538 -0.0104801 0.00652244 3.08951
0.154 -0.00404362 -0.00101994 3.07063
0.1542 0.00808521 0.00112775 3.06433
0.1544 -0.000860357 -0.00157234 3.06125
0.1546 0.00749146 -0.000107086 3.04939
0.1548 -0.000173313 -0.00180394 3.04242
0.155 -0.00316849 0.00582693 3.03057
0.1552 0.00478559 0.00619012 3.01861
0.1554 -0.00272076 -0.0058691 2.99689
0.1556 0.00974551 0.0094562 3.00177
0.1558 -0.0151389 -0.00258427 2.96887
0.156 0.00798808 0.00654211 2.97608
0.1562 0.00160945 -0.0079122 2.94913
0.1564 0.0109733 0.00400915 2.95933
0.1566 -0.00550934 0.00286052 2.95676
0.1568 -0.000866498 0.00565648 2.96838
0.157 0.0051475 -0.0103258 2.97041
0.1572 -0.000360344 0.00453339 2.98838
0.1574 -0.0175038 0.00591318 2.99703
0.1576 0.000618825 -0.00920337 3.00609
0.1578 0.010163 -0.00223885 3.04008
0.158 -0.0131815 -0.00465174 3.04797
0.1582 0.00744242 0.00880497 3.08061
0.1584 -0.0112695 -0.00999033 3.08143
0.1586 0.0126454 0.00740528 3.10205
0.1588 0.00398781 -0.00286628 3.1234
0.159 -0.00330132 0.00198046 3.11365
0.1592 0.0100878 0.0111381 3.12922
0.1594 -0.0150044 -0.0170072 3.10065
0.1596 0.0136872 0.013727 3.1192
0.1598 -0.017314 -0.0113579 3.10203
0.16 0.0105808 0.0142549 3.12989
0.1602 -0.00415999 -0.00493495 3.14168
0.1604 -0.00498851 -0.00104411 3.16151
0.1606 0.00715112 0.0104422 3.18166
0.1608 -0.00599098 -0.0155305 3.1922
0.161 0.0130213 0.0165664 3.226
0.1612 -0.0152396 -0.0103217 3.22027
0.1614 0.00759152 0.00468852 3.25189
0.1616 0.00169302 -0.00915876 3.26118
0.1618 -0.00108594 0.00348149 3.28249
0.162 0.00638657 0.0155991 3.30737
0.1622 -0.0136985 -0.000697815 3.29902
0.1624 0.012514 0.00313146 3.3099
0.1626 -0.00895693 -0.00819162 3.29604
0.1628 -0.000786038 0.0161171 3.30403
0.163 -0.00562001 -0.0019262 3.29581
0.1632 0.0122047 0.00225753 3.29984
0.1634 0.00266506 -0.00781198 3.29192
0.1636 -0.00384641 0.0028732 3.29765
0.1638 0.00911086 0.00682417 3.3069
0.164 0.000577414 -0.00417189 3.29682
0.1642 0.00206583 0.00526606 3.30742
0.1644 -0.00464374 -0.00198303 3.31212
0.1646 -0.00103767 -0.0026998 3.31295
0.1648 -0.00325854 0.00166763 3.31571
0.165 -0.00480971 0.00216119 3.32821
0.1652 0.00650916 0.00826377 3.32679
0.1654 -0.00764033 -0.0063748 3.31212
0.1656 0.0112622 0.00329065 3.31449
0.1658 -0.0112632 0.00167745 3.30151
0.166 0.00657119 0.00200294 3.31523
0.1662 0.0082134 -0.00588106 3.32752
0.1664 -0.0116323 0.00453767 3.32777
0.1666 0.00862091 -0.00018237 3.33651
0.1668 -0.0049718 -0.0115909 3.33014
0.167 0.00831031 0.00599398 3.34341
0.1672 -0.0145428 0.00211287 3.34069
0.1674 0.00724715 -0.00108289 3.35369
0.1676 0.00181635 -0.00716004 3.36469
0.1678 -0.000867399 0.000982813 3.38139
0.168 0.00426805 0.0113953 3.40166
0.1682 -0.0102798 -0.00316876 3.40793
0.1684 0.0179757 0.00440882 3.43784
0.1686 -0.000209998 -0.00990321 3.43579
0.1688 -0.00135067 0.0051936 3.44609
0.169 -0.004285 0.00491106 3.45436
0.1692 0.00437864 -0.000365858 3.47065
0.1694 0.00213575 -0.00492597 3.48604
0.1696 -0.00131433 0.0138734 3.50869
0.1698 0.00243862 -0.00925534 3.50959
0.17 0.0048238 -0.00569353 3.5217
0.1702 -0.00931556 0.00320005 3.53474
0.1704 -0.00557332 0.0090554 3.56124
0.1706 0.00210875 -0.00673892 3.56882
0.1708 0.0033545 -0.00919423 3.58132
0.171 -0.00783532 0.00382331 3.60486
0.1712 -0.00581565 -0.000706317 3.6135
0.1714 -0.000243947 -0.00165375 3.62383
0.1716 -0.000452209 -0.0071221 3.62744
0.1718 0.00556943 0.00419581 3.6432
0.172 0.00191531 -0.00144391 3.65544
0.1722 -0.00385272 0.00496728 3.6606
0.1724 0.00243919 -0.00499643 3.6661
0.1726 0.00625846 -0.00644981 3.67384
0.1728 -0.000363249 -0.00806068 3.68694
0.173 0.00160856 0.00873466 3.70538
0.1732 -0.0101694 0.00243987 3.69255
0.1734 0.0109532 -9.22813e-06 3.70875
0.1736 0.0047103 -0.00838225 3.71708
0.1738 -0.00366311 0.0034837 3.72043
0.174 0.00227797 0.00344354 3.72485
0.1742 0.00216994 0.00774905 3.73037
0.1744 0.000963977 -0.00849149 3.73473
0.1746 0.00889807 0.00747993 3.75544
0.1748 -0.010049 -0.00498455 3.75211
0.175 0.0070777 0.008193 3.76659
0.1752 -0.001881 -0.00421799 3.77099
0.1754 -0.00268407 -0.00342564 3.7878
0.1756 0.00631171 0.00402558 3.81418
0.1758 -0.00719463 -0.00356638 3.82394
0.176 0.00841257 0.000906448 3.84758
0.1762 -0.00430543 -0.0091232 3.84297
0.1764 0.00822517 0.00672226 3.86191
0.1766 -0.0120871 -0.00271692 3.86909
0.1768 0.00529832 0.00221059 3.8927
0.177 0.00389888 -0.00417904 3.89877
0.1772 -0.00447133 0.000823767 3.91322
0.1774 -2.83364e-06 0.00716386 3.92454
0.1776 0.000277875 0.00265087 3.92713
0.1778 0.0044037 -0.00950784 3.93635
0.178 0.00668946 0.0115725 3.95945
0.1782 -0.00695407 -0.0069661 3.96036
0.1784 0.00257457 0.0144914 3.97437
0.1786 -0.00933029 0.00744928 3.98385
0.1788 0.00893659 -0.00360857 4.00344
0.179 -0.00101821 -0.0115274 4.00642
0.1792 0.00155993 0.0147513 4.02297
0.1794 -0.00781818 0.000927806 4.02854
0.1796 0.00937241 -0.00558765 4.04107
0.1798 0.00498385 0.00301465 4.05188
0.18 -0.00986464 -0.00701424 4.04491
0.1802 0.0065941 0.0133723 4.06227
0.1804 -0.00629192 -0.0154512 4.04924
0.1806 0.012725 0.00877496 4.06823
0.1808 -0.00681984 -0.00831564 4.06773
0.181 0.000651974 0.00484264 4.07978
0.1812 -0.0080243 0.00474961 4.07629
0.1814 0.0035087 -0.00510367 4.07937
0.1816 0.00792351 0.00661631 4.07867
0.1818 -0.00253997 -0.00462492 4.07195
0.182 0.0088921 0.0134074 4.07961
0.1822 -0.0144674 -0.00850041 4.0569
0.1824 0.00190565 0.0110186 4.06158
0.1826 0.00246699 0.00313796 4.04957
0.1828 0.000768787 -0.0116116 4.03961
0.183 0.0121583 -0.00193146 4.02941
0.1832 -0.0035617 0.00195279 4.02653
0.1834 0.0029497 0.00305285 4.02246
0.1836 -0.000816 -0.00389704 4.01087
0.1838 -0.000763613 0.00483118 4.01376
0.184 0.000441377 0.000877916 4.00927
0.1842 -0.00305094 0.000637396 4.00331
0.1844 0.00523092 -0.00185767 4.00458
0.1846 0.00565605 -0.00558616 4.00835
0.1848 -0.00547284 -0.000388197 4.02208
0.185 -0.00656736 0.000696922 4.01989
0.1852 0.00277932 0.0104296 4.02607
0.1854 0.0107293 -0.0153058 4.02557
0.1856 0.0125859 -0.0044868 4.03284
0.1858 -0.0073041 0.0072748 4.04479
0.186 -0.00257193 0.00186731 4.05067
0.1862 0.00625815 -0.00601207 4.06009
0.1864 0.00591774 -0.00147815 4.0742
0.1866 0.00204492 0.0074039 4.08576
0.1868 -0.00371426 -0.00390108 4.08746
0.187 0.00644075 -0.00179871 4.10489
0.1872 -0.00678517 -0.000805038 4.10526
0.1874 0.0020043 0.0146617 4.12048
0.1876 -0.00179347 -0.0060995 4.12056
0.1878 0.0109103 -0.00170569 4.13153
0.188 0.00765222 0.000637949 4.13746
0.1882 -0.0151153 0.000509006 4.13405
0.1884 0.00950497 0.0103883 4.15819
0.1886 0.00375054 -0.0222082 4.15429
0.1888 -0.00678426 -0.000261658 4.17069
0.189 -0.0108691 0.0121745 4.18504
0.1892 -0.00542955 -0.00580274 4.19506
0.1894 0.0149374 0.00597082 4.22159
0.1896 0.00817883 -0.00341869 4.22609
0.1898 0.0023064 0.00550758 4.24755
0.19 -0.0095765 0.00449002 4.25321
0.1902 0.00421462 0.000780877 4.27382
0.1904 -0.00568483 -0.00793081 4.29304
0.1906 0.0123557 0.0085753 4.33366
0.1908 -0.00978041 0.00244773 4.33984
0.191 0.00341992 0.00933943 4.36331
0.1912 -0.00268228 -0.00570931 4.3716
0.1914 0.00741946 0.00652425 4.39215
0.1916 0.00340029 0.000401552 4.40629
0.1918 -0.00234826 0.00246435 4.41668
0.192 -0.00503953 0.00484416 4.43665
0.1922 -0.00225418 -0.00495461 4.44667
0.1924 0.0122306 0.00319539 4.46692
0.1926 -0.0101292 -0.00146178 4.47212
0.1928 0.0051445 0.00833691 4.48727
0.193 -0.000303026 -0.00460781 4.49743
0.1932 0.00583752 -0.00324059 4.5098
0.1934 -0.00212707 0.00504248 4.51735
0.1936 -0.0024278 -0.00348833 4.51419
0.1938 0.00848496 0.0110081 4.54123
0.194 0.000478681 -0.00612635 4.54027
0.1942 -0.00157645 -0.00936067 4.54011
0.1944 -0.00256184 0.0120311 4.55404
0.1946 -0.00316721 -0.00125207 4.54621
0.1948 0.00439468 -0.00297264 4.55113
0.195 -0.000229334 -0.00445454 4.55676
0.1952 -0.00497739 0.00676877 4.56778
0.1954 0.00895946 -0.0026102 4.57089
0.1956 -0.00602656 -0.00624959 4.56665
0.1958 -0.00450008 0.0109813 4.57643
0.196 -0.00223055 -0.00489463 4.57034
0.1962 0.00934189 0.000707456 4.57937
0.1964 -0.00209469 -0.00499571 4.58025
0.1966 0.00218657 0.0152795 4.59448
0.1968 -0.00585771 0.00274413 4.60728
0.197 0.0097413 0.000360018 4.62232
0.1972 -0.00956734 -0.010889 4.61577
0.1974 0.00429307 0.0193905 4.63867
0.1976 -0.011153 -0.00465868 4.63228
0.1978 0.0105781 0.00449959 4.64408
0.198 0.0013019 -0.0108792 4.65008
0.1982 0.000298738 0.00648005 4.65222
0.1984 -0.00255635 0.00304323 4.66158
0.1986 0.00466745 -0.00115541 4.67794
0.1988 0.00757981 -0.00143077 4.68954
0.199 -0.0144744 -0.00966824 4.68716
0.1992 0.0080136 0.00937887 4.71715
0.1994 0.00244836 -0.00937291 4.72843
0.1996 0.00325327 0.002892 4.75965
0.1998 -0.00227941 -0.00131911 4.78171
0.2 -0.00177881 0.0051155 4.79053