File: Post Processing/Pure Ni/Ni_Tensile_5KeV.def1.txt
# Fix print output for fix def1
2.86709e-15 0.0983067 -0.389717 0.288152
-0.00134329 0.182238 -0.0101694 0.487754
-0.00302946 -0.0379735 -0.029736 0.40703
-0.00326331 -0.00222193 0.0527387 0.47222
-0.00315847 -0.017588 -0.0105204 0.464951
-0.00296437 0.0258285 0.000546387 0.510692
-0.00320189 -0.00309056 -0.0133973 0.515319
-0.00338352 0.00147657 0.0161273 0.547656
-0.0034563 -0.0078032 -0.00101304 0.560256
-0.00341311 0.0101815 -3.33479e-05 0.588538
-0.00353968 0.00198415 -0.0065896 0.606187
-0.0037064 0.00120138 0.00629881 0.632447
-0.00383247 -0.00533175 0.00144571 0.650359
-0.0038465 0.00370786 0.00297135 0.678428
-0.00391114 0.00147348 -0.00414754 0.697268
-0.00401959 0.00118184 0.00158684 0.721271
-0.00413791 -0.00274308 0.00133233 0.739393
-0.00420333 -0.000106754 0.00141908 0.763018
-0.00427098 0.00187587 -0.000971492 0.784936
-0.00437047 0.00125857 0.000364949 0.807704
-0.00447571 -0.00212542 7.24514e-05 0.828952
-0.00454345 0.00081107 0.00068372 0.853473
-0.0046237 0.00112752 -0.00190478 0.87431
-0.0047214 0.000374599 0.0015156 0.896916
-0.00480846 -0.00085184 0.00129396 0.91885
-0.00487788 0.00131478 4.86621e-05 0.940467
-0.00495542 0.00127761 -1.52435e-06 0.962812
-0.00504502 0.00200959 -0.00117234 0.985961
-0.00516276 0.000773451 0.000738457 1.0082
-0.00528577 -0.00354307 0.00228092 1.031
-0.00534293 0.000305896 0.00202334 1.05547
-0.00539026 0.000417692 -0.0031868 1.07653
-0.00547065 0.0040695 -0.000538538 1.10137
-0.00561072 -0.00163897 -2.00885e-06 1.12122
-0.00571563 -0.00245191 0.00379401 1.144
-0.00576071 -0.000891784 -0.000236898 1.16504
-0.00579745 0.00370547 -0.00191803 1.19009
-0.00591009 0.000398428 -0.00231078 1.21293
-0.00603298 -0.000798237 0.00268712 1.23581
-0.0061164 -0.00239958 0.00144081 1.25713
-0.00615181 0.00396035 0.000337525 1.2819
-0.00624016 0.00264717 -0.00283961 1.30433
-0.00638289 -0.000924133 0.00206687 1.32843
-0.00649225 -0.00384742 0.00260482 1.35051
-0.00652273 0.000364223 0.00071785 1.37353
-0.00655592 0.00388652 -0.00240557 1.39647
-0.00667723 0.00165963 -0.00129339 1.41993
-0.00683009 -0.00207661 0.00305235 1.44223
-0.00692076 -0.00332488 0.00389726 1.46538
-0.00693564 0.00144472 -0.000732525 1.49015
-0.00698533 0.00391106 -0.003532 1.51292
-0.00711534 0.000460062 0.000185785 1.53577
-0.00725494 -0.00399034 0.00129162 1.55759
-0.00731668 -0.00216844 0.00228588 1.58237
-0.0073361 0.00226707 -0.000757525 1.60512
-0.00740028 0.00267245 -0.00439267 1.62782
-0.00752962 0.00237322 0.000830812 1.65378
-0.0076723 -0.00218434 0.00291492 1.67588
-0.00775159 -0.000925853 0.00159935 1.69935
-0.00779914 0.00100082 -0.00115887 1.72236
-0.00786989 0.00135992 -0.00223414 1.74547
-0.00797262 0.00133113 0.000785849 1.77125
-0.00808046 -0.000688134 0.00072115 1.79344
-0.00815274 0.000339768 0.00149411 1.81744
-0.00822088 0.000677302 -0.00200944 1.84153
-0.00830552 0.00170768 0.000266755 1.86695
-0.00841016 -0.00160536 -0.000721529 1.88797
-0.00848357 0.00138866 0.00186168 1.91346
-0.00855666 0.00041957 -0.000817743 1.93475
-0.0086334 0.00163296 0.00176575 1.96073
-0.00873079 -0.0012381 -0.00134502 1.98236
-0.00881077 0.00097865 0.00100925 2.00882
-0.00888995 0.000536141 0.000433797 2.03281
-0.0089665 0.00109636 0.000818473 2.05581
-0.00905479 -3.15219e-05 -0.00209519 2.07825
-0.00915018 0.00161267 0.00188496 2.10453
-0.00925624 -0.00209321 -0.000457268 2.12633
-0.00932661 0.000911251 0.00186929 2.15262
-0.00940176 -0.000127136 -0.00234882 2.17419
-0.009491 0.00260716 0.000250536 2.20021
-0.00961903 -0.00178547 -0.00137234 2.22282
-0.00970812 -0.00154065 0.00318172 2.24933
-0.00973902 -0.0013774 -0.000116696 2.27179
-0.00976067 0.00390744 -0.00175527 2.29788
-0.00986661 0.00197379 -0.00283473 2.321
-0.0100203 -0.000399045 0.00254165 2.34452
-0.0101437 -0.00361853 0.00294252 2.36598
-0.0101809 0.00186165 0.000701729 2.39311
-0.0102257 0.00259047 -0.00301743 2.41798
-0.0103182 0.00290432 -0.000297476 2.44436
-0.0104528 -0.00226928 0.0007413 2.46681
-0.0105381 -0.00234287 0.00356909 2.49337
-0.0105651 0.000839065 -0.000261203 2.51679
-0.0106076 0.00367414 -0.00222806 2.54114
-0.0107322 0.00248499 -0.00163101 2.56552
-0.0108856 -0.00138387 0.00213957 2.5901
-0.0109834 -0.00275671 0.00353081 2.61382
-0.0110128 -0.000911258 -0.00112134 2.63735
-0.0110428 0.00348241 -0.00120245 2.66242
-0.0111492 0.00113292 -0.00218651 2.68684
-0.0112763 -0.00078009 0.00352057 2.71235
-0.0113635 -0.00305087 0.00114081 2.7359
-0.0113939 0.0022652 0.000704312 2.76328
-0.0114615 0.00226455 -0.00355193 2.78635
-0.0115812 0.00166736 0.00134814 2.81231
-0.0117159 -0.00218862 0.00123657 2.83285
-0.0117964 0.000629285 0.00339644 2.86038
-0.0118555 -0.000547493 -0.000500255 2.8846
-0.0119115 0.00269537 0.000556881 2.91303
-0.0120029 0.000404588 -0.00146752 2.93834
-0.0121021 0.00129914 0.000101235 2.96299
-0.0122038 -0.000900143 0.00175888 2.98452
-0.0122774 -0.000376584 0.000343752 3.00851
-0.0123407 0.00100753 0.00125642 3.03592
-0.0124192 -0.000295499 -0.0027443 3.05923
-0.0125033 0.00112096 0.00176117 3.08712
-0.0125954 -0.00142826 0.000379761 3.11028
-0.0126627 0.00153202 0.00201451 3.13807
-0.0127513 0.000646687 -0.00210395 3.16187
-0.0128483 0.00157594 0.00186136 3.18969
-0.0129509 -0.00289068 0.00151722 3.21157
-0.0129967 0.00116964 0.00141221 3.23733
-0.0130518 0.00169322 -0.00333742 3.26205
-0.0131483 0.00341836 0.000300208 3.28881
-0.0132922 -0.00174398 -0.000191927 3.31184
-0.013394 -0.00102404 0.00379601 3.33888
-0.0134398 -0.00158741 0.00018242 3.36391
-0.013469 0.0025582 -0.000912501 3.39143
-0.0135552 0.0026743 -0.00195472 3.41577
-0.0136886 -0.000916059 -0.000481514 3.43903
-0.0138004 -0.000610312 0.00314345 3.46485
-0.0138758 -0.00140839 0.00146693 3.48888
-0.0139141 0.00178069 0.00150263 3.51581
-0.0139722 0.00138501 -0.00345467 3.54129
-0.0140755 0.00233426 0.000230522 3.5684
-0.0142124 -0.00262626 0.000605864 3.59244
-0.0143002 -0.000165076 0.0037429 3.62008
-0.0143651 -0.000654915 0.000185301 3.64501
-0.0144188 0.00334407 0.000271957 3.67209
-0.0145103 -0.000989777 -0.00274799 3.69563
-0.01461 0.00105043 0.0022785 3.72328
-0.0147054 -0.00265964 -0.000512089 3.74703
-0.0147595 0.000943854 0.000842336 3.77494
-0.0148243 0.00041794 -0.00176027 3.79964
-0.014901 0.00231751 0.000392971 3.82628
-0.0150125 -0.000226405 0.00026738 3.84985
-0.0151136 -6.79163e-05 0.00113995 3.87596
-0.0151916 -0.00164991 -0.000220317 3.90211
-0.0152385 0.0030288 0.000884028 3.92954
-0.0153214 0.00150239 -0.0014926 3.95219
-0.015422 0.00144278 0.000801569 3.97812
-0.0155239 -0.000775027 0.00192248 4.00479
-0.0155968 0.000945058 0.00136985 4.03206
-0.0156671 0.00164351 -0.0016227 4.05951
-0.0157677 0.00209072 -0.000387399 4.08513
-0.0158929 -0.00043443 1.94195e-05 4.1103
-0.0159944 -0.000845507 0.00221128 4.13596
-0.016068 0.000960265 0.00170021 4.16256
-0.0161383 -0.000936981 -0.000136358 4.18669
-0.0161957 0.00139127 0.000664181 4.21315
-0.0162652 -0.000501804 -0.000801529 4.24036
-0.0163358 0.00268778 0.000909378 4.26854
-0.0164336 0.000194942 -0.00125682 4.29294
-0.0165374 0.000651865 0.000906777 4.31836
-0.0166273 -0.000610802 0.00143322 4.34412
-0.0166835 0.000965639 0.00177688 4.37174
-0.016746 0.000455047 -0.00228734 4.39774
-0.0168363 0.00147793 -0.00113497 4.42448
-0.016947 -0.000178281 0.00126865 4.45111
-0.017038 -0.00025947 0.00251048 4.47698
-0.0171066 -0.000515346 -0.000442504 4.50261
-0.0171627 0.00237983 -0.00108354 4.52993
-0.0172552 0.00180865 -0.0025372 4.55609
-0.0173775 0.00144751 0.00126291 4.58192
-0.0175055 -0.00146458 0.0010892 4.60653
-0.0175945 -0.00130254 0.00213242 4.63324
-0.017639 6.8573e-05 0.00103453 4.66068
-0.0176748 0.00238438 -0.00181374 4.68798
-0.0177563 0.00152869 -0.00215519 4.71515
-0.0178773 0.000405234 0.000352405 4.74063
-0.0179995 -0.00142448 0.00201889 4.76677
-0.018079 -0.00271131 0.00213572 4.79274
-0.0181085 0.00204195 0.000856462 4.82147
-0.0181614 0.00219798 -0.00297071 4.84626
-0.0182729 0.00371479 -0.00106717 4.8747
-0.0184427 -0.00177741 0.000583432 4.89791
-0.0185649 -0.00217066 0.00476696 4.92597
-0.0186097 -0.00235398 0.000328905 4.95221
-0.0186092 0.00303485 -0.000716102 4.98108
-0.0186643 0.00172964 -0.00259124 5.00563
-0.0187767 0.00283673 -0.000218015 5.03264
-0.0189311 -0.00164956 -0.000416267 5.05826
-0.0190462 -0.00239161 0.00180047 5.08615
-0.0190997 -0.00122431 0.000857521 5.11295
-0.0191252 0.00187293 -0.000415521 5.13918
-0.0191851 0.00307568 -0.00231139 5.16676
-0.0193028 0.00107841 -0.00130108 5.19253
-0.0194412 -0.000409186 0.00233624 5.22141
-0.0195503 -0.00214417 0.00280733 5.24727
-0.0195947 -0.00118356 0.0014995 5.27442
-0.0196225 0.00141368 -0.00217595 5.30239
-0.0196968 0.00420121 -0.00194312 5.32881
-0.0198503 0.000718064 -0.000662699 5.35299
-0.0200092 -0.00165257 0.00276307 5.37902
-0.020108 -0.00322264 0.00224527 5.40557
-0.0201293 0.000797058 0.000711793 5.43437
-0.0201542 0.00308775 -0.00161136 5.46246
-0.0202385 0.00304824 -0.00204534 5.48836
-0.0203766 0.00027246 -0.000105799 5.51358
-0.0205075 -0.00094793 0.00346216 5.53887
-0.0205935 -0.00211823 0.00371436 5.56585
-0.0206235 -0.000380941 -0.000305234 5.59472
-0.0206582 0.00278542 -0.0028759 5.62353
-0.0207512 0.00366837 -0.00118677 5.6512
-0.0209016 -0.000388508 2.94459e-05 5.67751
-0.0210302 -0.00150759 0.00150628 5.70341
-0.0211086 -0.00109316 3.40031e-05 5.73049
-0.0211722 0.00168649 0.000612052 5.75866
-0.0212574 0.000917074 -0.000928809 5.78477
-0.0213615 0.000406254 3.05342e-05 5.81126
-0.0214583 -0.000838499 0.00100444 5.83931
-0.0215244 -0.000608321 0.000104786 5.8665
-0.0215789 0.00187287 -0.00033074 5.89317
-0.0216565 0.00135207 -0.00221248 5.91949
-0.0217644 0.00148135 0.000115279 5.9457
-0.0218836 -0.000634897 0.000687665 5.97194
-0.0219785 -0.000139096 0.00228988 5.99996
-0.0220509 -0.00122103 0.000213861 6.02623
-0.0221037 0.00197187 0.000571459 6.05498
-0.0221884 0.000103204 -0.00235236 6.0815
-0.0222965 0.00106844 0.000373422 6.10884
-0.0224156 -0.000719753 -0.000148647 6.13639
-0.0225196 -0.000183284 0.000314358 6.16536
-0.0226146 -3.15628e-05 -0.000553496 6.19316
-0.0227067 -1.64179e-06 -0.000438168 6.21901
-0.0228023 0.00182335 0.000328231 6.2469
-0.0229165 0.000296474 -0.00124786 6.27298
-0.0230303 0.000233427 0.00178658 6.30096
-0.023128 -0.00317181 0.000891038 6.32549
-0.0231669 0.000967153 0.00250129 6.35447
-0.023207 0.000295227 -0.00258826 6.38081
-0.0232717 0.00361609 -6.08569e-05 6.41094
-0.0233923 -0.000104837 -0.000590572 6.43678
-0.0235107 0.00116666 0.00172258 6.46568
-0.0236288 -0.00207824 -0.000939009 6.49106
-0.0237123 0.00106179 0.00108605 6.5199
-0.0237977 0.000176582 -0.000682468 6.54597
-0.0238844 0.00149149 0.000423925 6.5723
-0.0239887 -0.000201286 0.000336848 6.59897
-0.0240803 -0.000452082 0.00147095 6.62624
-0.0241489 0.00115984 -8.97828e-05 6.65592
-0.0242314 0.00129945 -0.00247481 6.68362
-0.0243463 0.00204557 -0.000552795 6.71206
-0.0244886 -0.00168969 -0.000384743 6.73704
-0.0245932 -0.000405817 0.00376741 6.76548
-0.024657 -0.000971298 -8.49932e-05 6.79149
-0.0247033 0.00284196 -0.00101124 6.81975
-0.024801 0.00225369 -0.00278392 6.84564
-0.0249428 0.000794651 0.000370486 6.87358
-0.0250827 -0.00202663 0.00198339 6.89987
-0.0251691 -0.000256195 0.00244173 6.92768
-0.0252266 -0.000144783 -0.00169316 6.95581
-0.0252855 0.00406465 -0.000564094 6.98468
-0.0254132 0.000999806 -0.00226261 7.01071
-0.0255678 0.000338595 0.00197172 7.03915
-0.0257101 -0.00302948 0.000742404 7.06446
-0.0257899 -0.000235857 0.0022219 7.09469
-0.0258428 -0.000608006 -0.000526396 7.1212
-0.0258915 0.0014845 -0.000522402 7.14792
-0.0259781 0.00185858 -0.00137648 7.17568
-0.0260989 0.000242356 0.000250246 7.20269
-0.0262183 0.000382131 0.000545897 7.23015
-0.0263297 -0.000902416 0.000244119 7.25722
-0.0264193 0.000786336 0.00165128 7.28672
-0.026504 -0.000515319 -0.000516431 7.31295
-0.0265686 0.000538309 -0.000322181 7.34206
-0.0266426 0.00108997 -0.00149005 7.36974
-0.0267478 0.00233364 -0.00122598 7.3978
-0.0268971 0.000363204 -0.00314974 7.42225
-0.0270633 0.00174363 0.00109242 7.44995
-0.0272351 -0.00323827 0.00128787 7.4754
-0.0273378 -0.00209948 0.00275602 7.50345
-0.0273776 -0.00189481 0.000290954 7.53208
-0.027391 0.00200491 -0.000812343 7.56134
-0.0274581 0.00246735 -0.0035283 7.58917
-0.0275897 0.00389921 -0.00211169 7.61661
-0.0277812 0.000542813 -0.000896019 7.64213
-0.0279712 -0.000863277 0.00186627 7.66697
-0.0281121 -0.00252113 0.00365185 7.69317
-0.0281806 -0.00203849 0.00229453 7.72201
-0.0281999 0.000569865 8.47328e-05 7.75178
-0.0282293 0.00292144 -0.00258124 7.77989
-0.0283123 0.00309107 -0.00223608 7.80758
-0.0284597 0.00153083 -0.00151906 7.83338
-0.0286442 0.000265203 -0.000962332 7.86026
-0.0288239 -0.000176639 0.00159475 7.88903
-0.0289698 -0.00225352 0.00183472 7.9155
-0.0290577 -6.65117e-06 0.00298134 7.94518
-0.0291155 -0.0015756 -0.000282895 7.97082
-0.0291539 0.00158648 0.000568459 7.99853
-0.029228 0.00113414 -0.00243316 8.02407
-0.029344 0.00169802 -0.00166245 8.05251
-0.0294922 0.000734519 -0.00192714 8.08058
-0.0296583 0.000669209 -0.000673192 8.10784
-0.0298218 -0.00113564 0.00238697 8.13403
-0.0299362 -0.00152932 0.00185468 8.16121
-0.0299966 0.000148826 0.00211789 8.19026
-0.0300487 0.000175423 -0.00277966 8.21647
-0.03013 0.00351842 -0.000984219 8.24614
-0.0302767 0.00145059 -0.00321113 8.27179
-0.0304505 0.00220687 0.000496995 8.30039
-0.0306398 -0.00222618 -0.00135506 8.32524
-0.0307841 0.000966993 0.00290981 8.3526
-0.0309052 -0.00147685 -0.00123721 8.37955
-0.0310092 0.00243535 0.000928535 8.4069
-0.0311331 -0.000738605 -0.000835807 8.43357
-0.0312412 0.000642073 0.0018481 8.46142
-0.031344 -0.000363088 -0.0010177 8.48773
-0.0314389 0.00251118 0.000323319 8.51783
-0.0315611 0.000736483 -0.00197512 8.54201
-0.0317025 0.00103956 0.00016292 8.56836
-0.0318491 -0.000175531 -8.47758e-05 8.59492
-0.0319774 0.000406122 1.36304e-05 8.62318
-0.0320966 0.0012108 0.00112564 8.65109
-0.0322155 0.000480794 -0.00173798 8.67864
-0.0323403 0.00211656 1.89851e-05 8.70716
-0.0324838 0.000635356 -0.00137781 8.73407
-0.0326317 0.000606989 -0.000309035 8.76165
-0.0327768 -0.00018493 -0.000638573 8.78738
-0.0329071 0.000348052 0.000718406 8.81368
-0.0330315 0.000797419 0.000320851 8.83992
-0.0331628 0.000923801 -0.000557193 8.86754
-0.0332983 0.000198509 -0.000308187 8.89407
-0.0334336 0.000401233 -0.00147939 8.92166
-0.0335756 0.00223329 -0.000201818 8.94912
-0.0337415 0.000619808 -0.00131285 8.97444
-0.0339029 0.000299433 0.00109552 9.00096
-0.0340469 -0.00100804 0.000929331 9.02707
-0.0341591 -0.000822875 0.000450362 9.055
-0.0342516 0.00200648 -0.000200541 9.08399
-0.034374 0.002257 -0.00326264 9.11005
-0.0345525 0.00323624 -0.00192109 9.13548
-0.0347866 0.00126912 -0.00121809 9.16092
-0.0350242 -0.000994751 0.00118337 9.18628
-0.035208 -0.00139038 0.00261884 9.21208
-0.0353305 -0.000788149 0.00163895 9.23887
-0.0354259 -0.000165726 -0.000556586 9.26545
-0.0355118 0.00145604 5.09947e-05 9.29296
-0.0356152 0.0016757 -0.00223809 9.32091
-0.0357531 0.0032548 -0.00198848 9.34734
-0.035943 0.00219771 -0.00247376 9.37189
-0.0361601 0.0014567 8.1511e-05 9.39499
-0.0363708 9.13939e-05 0.000930761 9.42021
-0.0365547 0.00020554 0.000457455 9.44739
-0.0367138 -0.000369702 0.00150534 9.47439
-0.0368415 -0.000648924 0.000433979 9.5034
-0.0369503 0.002935 -0.000504995 9.52986
-0.0370886 0.00279886 -0.0020792 9.55667
-0.037277 0.00376387 -0.00218984 9.58221
-0.0375187 0.00208147 -0.00183604 9.60677
-0.0377681 0.00158318 0.00109652 9.63102
-0.0380017 -0.000871582 -0.000245798 9.65448
-0.0381895 0.00154402 0.00138761 9.6813
-0.0383515 -0.00156049 -0.00111522 9.70653
-0.0384757 0.00131759 0.000465893 9.7325
-0.0386092 0.00154372 -0.00162795 9.75812
-0.0387647 0.00375073 -0.00124174 9.78517
-0.0389676 0.00127244 -0.00245845 9.80916
-0.0391932 0.00236072 -0.0014551 9.83437
-0.0394387 0.0021154 -0.00113155 9.85859
-0.0396824 0.00121257 0.000187691 9.88235
-0.0398998 -0.000148839 0.00149557 9.90669
-0.0400689 0.000551009 0.00114095 9.93182
-0.0402212 0.00220586 -0.00152508 9.95812
-0.0404001 0.0025792 -0.00236654 9.98355
-0.0406187 0.00189015 -0.00172412 10.0082
-0.040856 0.00299666 -0.00117914 10.0325
-0.041103 0.00183163 -0.00113619 10.0547
-0.0413466 0.00321551 -0.000695835 10.0781
-0.0415953 0.00137549 -0.00115604 10.1011
-0.0418322 0.000947106 -0.000777169 10.1242
-0.0420514 0.00144267 -0.000442453 10.1468
-0.0422666 3.17562e-05 -0.0010934 10.1702
-0.0424732 0.00279329 4.1621e-05 10.1961
-0.042691 0.0026292 -0.00273031 10.2208
-0.0429254 0.00444396 -0.00168347 10.2448
-0.0431957 0.00255022 -0.00297996 10.2655
-0.0434829 0.00417296 -0.00202108 10.2892
-0.0437908 0.00204401 -0.00223608 10.3102
-0.0440812 0.00330515 -0.0007455 10.3323
-0.0443586 0.00162985 -0.00222064 10.3555
-0.0446133 0.00328468 0.0003664 10.3785
-0.0448527 0.00101527 -0.00193456 10.399
-0.0450716 0.00306906 -0.0006879 10.4216
-0.0453002 0.00321338 -0.00248426 10.4462
-0.0455546 0.00399433 -0.00348806 10.4689
-0.0458448 0.0054978 -0.00376533 10.4897
-0.0461855 0.0042192 -0.00480726 10.5084
-0.0465326 0.0043233 -0.0010802 10.5281
-0.0468616 0.00262732 -0.0014367 10.546
-0.0471577 0.00368822 -0.00177373 10.5672
-0.0474513 0.00466409 -0.00285701 10.5893
-0.0477639 0.00495128 -0.00371266 10.6089
-0.0481021 0.00570632 -0.00406713 10.6271
-0.0484633 0.0057443 -0.00399655 10.6447
-0.048834 0.00450833 -0.00323505 10.6624
-0.0491963 0.00564196 -0.00367902 10.6799
-0.0495581 0.00440975 -0.00375828 10.6958
-0.0499115 0.00553326 -0.0031399 10.7146
-0.0502744 0.00652428 -0.00427337 10.7315
-0.0506495 0.00601565 -0.00389383 10.7475
-0.0510311 0.00575991 -0.00468384 10.7629
-0.0514113 0.00675059 -0.0051012 10.7783
-0.0518059 0.00757051 -0.00464679 10.7926
-0.0522119 0.00592755 -0.00490841 10.8062
-0.052609 0.00727608 -0.00414943 10.8224
-0.0530182 0.00722272 -0.00548079 10.8369
-0.0534389 0.00892003 -0.00512817 10.8514
-0.0538823 0.00788366 -0.00675465 10.8623
-0.0543356 0.0101124 -0.00617823 10.8723
-0.0548178 0.00969002 -0.00739559 10.88
-0.0553205 0.0105442 -0.0078182 10.8893
-0.0558377 0.0106822 -0.00880718 10.896
-0.0563613 0.010267 -0.00811165 10.9022
-0.0568829 0.0107166 -0.00799448 10.9057
-0.0574047 0.0104088 -0.00845777 10.9094
-0.0579221 0.0110546 -0.00877475 10.9122
-0.0584467 0.0117874 -0.00882031 10.914
-0.0589892 0.0122044 -0.00931655 10.9137
-0.0595421 0.0125173 -0.00865544 10.9129
-0.0600943 0.0115098 -0.00797021 10.911
-0.0606322 0.0116234 -0.00860508 10.9097
-0.0611735 0.0127888 -0.00965968 10.9079
-0.0617342 0.0124831 -0.00916592 10.9039
-0.0622965 0.0126922 -0.00844202 10.8971
-0.0628571 0.0120031 -0.00817715 10.8924
-0.0634081 0.0114733 -0.00921434 10.8866
-0.0639501 0.0123436 -0.00732673 10.8808
-0.0644808 0.0105098 -0.00623048 10.8744
-0.0649817 0.00521004 -0.00403345 10.8688
-0.0653742 0.00166129 0.00205158 10.8683
-0.0656684 0.00569377 -0.00458399 10.8698
-0.065985 0.00890876 -0.00323258 10.8697
-0.0663606 0.00329008 -0.00400972 10.8661
-0.0667095 0.00552722 -0.00146833 10.8635
-0.0670629 0.0068724 -0.00596065 10.8589
-0.0674589 0.00739974 -0.00394809 10.8549
-0.0678814 0.00705392 -0.00419894 10.8436
-0.0683079 0.0101122 -0.00630665 10.8292
-0.0687654 0.00948909 -0.00610806 10.8115
-0.0692313 0.0070507 -0.00304579 10.7926
-0.0696727 0.00896182 -0.00463727 10.7718
-0.0701197 0.00628221 -0.00419567 10.747
-0.0705363 0.00379156 -0.000674584 10.7193
-0.0708993 0.00456043 -0.00105367 10.6909
-0.0712326 0.00408277 0.0006734 10.661
-0.071536 -0.000160194 0.00231293 10.6291
-0.0717515 -0.00161581 0.00375131 10.5986
-0.0718883 0.00406935 0.000103241 10.5722
-0.0720548 0.00243334 -0.00128085 10.5365
-0.0722556 0.00610329 -0.000799428 10.4976
-0.0725404 0.00610767 -0.00473491 10.4499
-0.0729099 0.00673484 -0.00300767 10.387
-0.0733326 0.00659514 -0.0023867 10.3113
-0.0737757 0.00440683 0.000392106 10.2232
-0.0741865 0.0027556 0.00361739 10.1287
-0.0745231 -0.00188222 0.00753996 10.0291
-0.0747172 -0.00541768 0.0105734 9.9219
-0.0747557 -0.00484456 0.0104361 9.80989
-0.0746908 0.00219676 0.00668626 9.68715
-0.0746923 0.0124853 -0.00298097 9.54471
-0.0749254 0.0124576 -0.00304027 9.3749
-0.0753443 0.0114378 -0.00550908 9.18479
-0.0758902 0.013345 -0.0021737 8.98177
-0.0765106 0.0151864 -0.00291128 8.76253
-0.0771851 0.0142006 -0.00061139 8.53506
-0.077813 0.00622077 0.010903 8.30823
-0.0782823 0.00112614 0.00911537 8.08125
-0.0786146 0.00307971 0.00735768 7.86573
-0.0788734 0.00193315 0.000213801 7.67361
-0.079138 0.0188899 0.00123418 7.49499
-0.0796121 0.00512783 -0.00522201 7.28384
-0.0800983 0.0122137 0.00600078 7.07957
-0.0806367 0.00915547 -0.00433245 6.85287
-0.0812031 0.0129659 4.26223e-05 6.62137
-0.0818057 0.0109693 -0.000657895 6.38321
-0.0823865 0.0134886 0.000416992 6.15657
-0.0830025 0.0171579 -0.00614009 5.92392
-0.083743 0.0287884 -0.0215165 5.68005
-0.0846746 0.0323523 -0.0100935 5.45347
-0.0856491 0.0269249 -0.00828737 5.22651
-0.0865409 0.0262656 -0.00883929 5.00212
-0.0874091 0.03325 -0.0163417 4.78508
-0.0883881 0.0384271 -0.0270645 4.57607
-0.0894157 0.0339315 -0.0126901 4.39052
-0.0903526 0.0336774 -0.0193138 4.20268
-0.0913203 0.0400188 -0.023108 4.02822
-0.0923378 0.0372039 -0.0124493 3.8464
-0.0933238 0.0390401 -0.0308836 3.66722
-0.0943529 0.052647 -0.0297354 3.50361
-0.095468 0.0379221 -0.0173496 3.32948
-0.0964115 0.0314241 -0.0159421 3.18172
-0.0972472 0.0189029 -0.00211975 3.04281
-0.0979023 0.00840066 0.00629353 2.89903
-0.0983914 0.0202514 -0.0123037 2.76348
-0.0989933 0.0182215 -0.00944371 2.64422
-0.0996438 0.0111376 -0.00229562 2.52435
-0.100179 0.0112312 -0.0054591 2.43608
-0.100681 0.0153427 -0.0027544 2.35047
-0.101215 0.0105318 -0.0120836 2.27945
-0.101768 0.0148505 0.00182094 2.21062
-0.10227 -0.00108099 0.00199735 2.13432
-0.102571 -0.00121821 0.00906715 2.07608
-0.102753 0.00904732 0.00355281 2.01473
-0.102989 0.00408828 -0.00514736 1.95226
-0.103273 0.0061113 -0.000550295 1.90318
-0.103569 0.00339293 0.00350739 1.85058
-0.103828 -0.00274081 0.00554577 1.78964
-0.103956 0.000495125 0.00759289 1.74154
-0.104036 0.00291079 -0.00448045 1.70628
-0.104175 0.00365536 -0.00135431 1.68978
-0.104347 0.000846395 0.00453876 1.66586
-0.104493 -0.00127364 0.00257734 1.63144
-0.104622 -0.00173515 0.00140447 1.58609
-0.10472 -0.000161447 0.00164072 1.55028
-0.104815 -0.00134438 -0.00750471 1.52816
-0.104914 0.00461189 0.00753692 1.53402
-0.105058 -0.00717117 -0.00353901 1.50455
-0.105119 0.00718774 0.0055698 1.49825
-0.105261 -0.0109694 -0.00145969 1.4745
-0.10523 -0.0026301 0.014491 1.46394
-0.105132 0.00258783 -0.0145581 1.45189
-0.105143 0.0125817 0.00478279 1.47972
-0.105318 -0.00891322 -0.00130033 1.47734
-0.105397 0.00696869 0.00372626 1.4826
-0.105535 -0.0067698 -0.00184187 1.47032
-0.10558 0.010142 0.00540358 1.49358
-0.105741 -0.00433283 -0.00892339 1.49618
-0.105876 -0.00434981 0.00837933 1.51906
-0.10595 0.000530179 -0.0034681 1.53382
-0.106045 0.00358354 -0.00258835 1.53496
-0.106178 0.00218602 0.0027174 1.54903
-0.106307 -0.00425329 0.00374085 1.54523
-0.106347 0.00500474 -0.000575639 1.54719
-0.106444 0.0054017 -0.00718589 1.55044
-0.106602 0.00282526 0.00312423 1.56606
-0.106745 -0.00294538 0.00129305 1.58126
-0.106802 0.000261796 0.00495599 1.59504
-0.106848 0.00578429 -0.00245473 1.62174
-0.106969 -0.000289232 0.00301484 1.63621
-0.10707 0.00314716 -0.00249753 1.64799
-0.107193 0.000342397 0.00538785 1.66193
-0.107258 -0.00623758 0.00278022 1.67285
-0.107234 0.00403968 -0.00337111 1.67475
-0.107307 0.00529418 -0.00810133 1.68612
-0.107506 0.00227883 0.00272407 1.69455
-0.107663 -0.0133889 0.0101822 1.69436
-0.107603 0.00217049 0.00400421 1.70959
-0.107562 0.00414267 -0.00810992 1.70538
-0.107614 0.00644402 0.000164534 1.72769
-0.107754 -0.00301558 0.00262443 1.73078
-0.1078 -0.00297903 0.00120499 1.75904
-0.107837 0.0106579 -0.00331907 1.77317
-0.107971 -0.00629702 0.00634262 1.78693
-0.107986 -0.000829595 0.00255404 1.81289
-0.107955 0.000434973 -0.00314329 1.82324
-0.107986 0.00474561 -0.00289218 1.83484
-0.108107 0.00296132 -0.000121501 1.85676
-0.108219 -0.00852139 0.0131852 1.87262
-0.108154 0.00259802 0.00101289 1.88953
-0.10811 0.00717877 -0.00944496 1.90252
-0.108228 0.00348511 -0.00492676 1.92493
-0.108407 -0.00530945 0.0080599 1.95564
-0.10848 -0.000223566 0.00102268 1.96833
-0.108528 0.00253549 0.000368773 1.99
-0.108612 -0.000370542 -0.00125018 2.01364
-0.108714 0.00342978 -0.0036961 2.04115
-0.108869 -0.00240323 0.00667705 2.05807
-0.108965 -0.00184662 -0.00401477 2.05713
-0.109057 0.00905807 -0.000915621 2.0654
-0.109258 -0.00763114 0.00020588 2.06953
-0.109363 0.00892296 -0.000501865 2.0776
-0.109589 -0.0022245 -0.00808889 2.07831
-0.109802 0.00613675 0.00714221 2.09472
-0.110042 -0.0123443 -0.00100408 2.08361
-0.110103 0.00637564 0.00677546 2.09806
-0.110231 0.00187797 -0.00672022 2.0947
-0.110393 0.00415127 0.00459568 2.10242
-0.110562 0.000233275 -0.000924917 2.10222
-0.110691 -0.00373479 0.00142306 2.11033
-0.110756 0.00461245 -0.00240922 2.12262
-0.11087 -0.002505 -0.00148368 2.13531
-0.110944 -0.00165676 0.00441658 2.15706
-0.110997 0.000177993 -0.00488746 2.16025
-0.111074 0.00198989 -0.00325346 2.16676
-0.111209 0.00146183 0.000876592 2.17712
-0.111347 -0.00267917 0.00302108 2.18686
-0.111429 -0.00203923 0.00465283 2.19939
-0.111473 0.00418756 -0.00313381 2.20815
-0.111604 0.0102831 -0.00520711 2.21936
-0.111853 -0.0044974 0.00507916 2.21723
-0.111979 0.000793195 0.00482552 2.2288
-0.112091 0.00190445 -0.00664181 2.23574
-0.112264 0.000908282 0.00362332 2.24079
-0.112426 -0.00149589 -0.000574604 2.25287
-0.112565 0.00349975 0.00329748 2.26546
-0.112728 0.00124037 -0.00248412 2.27797
-0.112903 -0.00140527 0.0041379 2.29192
-0.113034 -0.00369434 0.00301955 2.2999
-0.113116 0.00330701 -0.00342507 2.30694
-0.113255 0.00261587 -0.000877326 2.31926
-0.113416 -0.000511196 0.00593069 2.32857
-0.113518 0.0033981 -0.001752 2.3331
-0.113656 0.00239935 0.00220237 2.34709
-0.11379 -0.00118031 0.00368924 2.35825
-0.113883 -0.000514614 -0.000915542 2.367
-0.113999 0.0017018 -0.00291265 2.36812
-0.114181 0.00217298 -0.0115754 2.37363
-0.114402 -0.00403119 0.0078252 2.3881
-0.114518 -0.00194524 0.00179356 2.40161
-0.114586 0.00631543 -0.000522803 2.41028
-0.114745 0.000991078 -0.00246012 2.41245
-0.11492 0.000470939 0.00206501 2.43224
-0.115083 -0.00842539 0.00441518 2.43729
-0.115129 0.00107762 -0.00240584 2.45363
-0.115212 0.00168642 -0.00149919 2.46775
-0.115334 -0.00162776 0.0035772 2.48313
-0.115433 0.000410542 0.00148752 2.49414
-0.115523 0.00380035 0.00486886 2.50721
-0.115641 0.0032542 -0.00382708 2.51616
-0.115825 0.00280415 0.0016841 2.5202
-0.116032 -0.0072728 0.00109084 2.52474
-0.116141 0.00140919 0.00447852 2.54346
-0.116244 -0.00206679 -0.000265889 2.56003
-0.116327 0.00328924 -0.0026994 2.58107
-0.116439 0.00411188 0.00146509 2.59202
-0.116597 -0.000634635 -0.00473663 2.59485
-0.116727 4.3242e-06 0.0035068 2.6206
-0.116843 0.00347869 -0.0023226 2.63982
-0.117002 0.000365239 -0.00354831 2.65261
-0.117175 0.00458062 0.00189311 2.66914
-0.117351 -0.0058159 0.00380979 2.6806
-0.117424 -0.000656237 0.00620476 2.70185
-0.117472 0.00392823 -0.0096732 2.7164
-0.117606 0.0022876 0.0108138 2.73396
-0.117722 -0.00809873 0.000821447 2.73815
-0.117732 0.00786684 0.000564126 2.76486
-0.117837 -0.00680741 -0.00126854 2.77304
-0.117887 0.00464867 -0.000204291 2.79706
-0.118016 -0.00663741 0.00194706 2.80532
-0.118044 0.00299797 0.00563917 2.82806
-0.118087 0.000539714 -0.00132848 2.84084
-0.118156 0.003069 0.00341756 2.86016
-0.118256 0.00201022 -0.0053082 2.86712
-0.118391 -0.00655963 0.00354689 2.87837
-0.118443 0.00219916 0.00304186 2.88375
-0.11849 -0.00399787 -0.00620401 2.88486
-0.118516 0.00752947 0.00249287 2.90061
-0.118635 -0.0023173 -0.00539956 2.90096
-0.118713 -0.000639156 0.0112093 2.91455
-0.118727 -0.00783157 -0.00448955 2.9077
-0.118664 0.00810609 -0.00291015 2.92532
-0.118731 -0.00203122 0.000108601 2.92619
-0.118795 0.00509374 -0.00305081 2.94162
-0.118938 0.00326448 0.00371204 2.95652
-0.119049 -0.00809762 0.0080026 2.96218
-0.118992 0.00372062 6.8764e-05 2.97276
-0.118996 0.00773727 -0.00976304 2.97429
-0.119163 0.00425313 -0.00493696 2.98316
-0.119414 -0.00726087 0.00619202 2.98569
-0.11952 -0.011152 0.00751048 2.99696
-0.11944 0.00664989 -0.00143285 3.01137
-0.119454 0.00783826 -0.00683272 3.02153
-0.119607 -0.00370298 0.00319432 3.0257
-0.119684 -0.0058292 0.00581014 3.0395
-0.119667 0.00546222 -0.00605474 3.04578
-0.119733 0.00143289 0.00255941 3.05574
-0.119819 -0.00280636 0.00423309 3.06494
-0.119876 0.0038905 -0.00038824 3.07165
-0.119961 0.00113031 0.00185234 3.07453
-0.120048 0.00206108 -0.000414118 3.074
-0.120123 0.00238015 6.40311e-05 3.08389
-0.120198 -0.00011224 -0.00141157 3.09455
-0.120275 -0.00213892 0.00337976 3.10911
-0.120318 0.000658413 -0.00310102 3.129
-0.12038 -0.00175301 -0.0016198 3.14271
-0.120415 0.00743058 0.0044236 3.16126
-0.120502 -0.00505799 -0.00381612 3.16623
-0.120531 -0.00115722 0.00603915 3.18973
-0.120523 0.00516595 0.00010206 3.20281
-0.120554 -0.000655735 0.000796323 3.22135
-0.120593 -0.000296001 0.00184385 3.23794
-0.120614 -0.000542302 -0.0015823 3.24973
-0.120658 -0.00154418 -0.00110357 3.26235
-0.120718 -0.000710299 0.00109967 3.28181
-0.120781 -0.00749416 0.0048098 3.29441
-0.120738 0.0042983 0.00329071 3.30682
-0.120716 0.00570615 -0.0072568 3.32112
-0.120804 0.00556777 0.00253282 3.33893
-0.120961 -0.0039474 0.00625261 3.34103
-0.121019 -0.0032286 0.00485783 3.34695
-0.121023 0.00122928 -0.00460643 3.34556
-0.121061 0.0020932 -0.000506725 3.35607
-0.121142 -0.00341833 0.00127228 3.35439
-0.121169 0.00120408 0.000755742 3.36632
-0.121192 0.00162155 0.00441882 3.37037
-0.121233 0.00104871 -0.00200586 3.36055
-0.121302 -0.000665894 -0.00498335 3.36639
-0.121407 0.0021053 0.00524806 3.37846
-0.121492 -0.00937623 0.00219235 3.37875
-0.121453 0.00522167 0.0020467 3.37904
-0.121496 0.00312435 -0.0114771 3.37473
-0.121633 0.00161995 0.00638376 3.38077
-0.121733 -0.0112089 0.00607533 3.37924
-0.121646 0.0094846 0.00254319 3.38688
-0.121645 0.00232091 -0.00444014 3.37683
-0.121678 0.00461827 -0.00104288 3.38265
-0.121752 -0.00029062 0.00262332 3.38378
-0.121785 -0.00590927 0.00451936 3.37847
-0.121719 0.00603019 0.000146449 3.38257
-0.121735 -0.000390105 -0.00404804 3.37978
-0.121773 0.00665934 0.00169079 3.39502
-0.121871 -0.00623977 0.00141689 3.39755
-0.121856 0.00145052 0.00652431 3.41027
-0.121821 0.00404372 -0.00762717 3.42823
-0.121864 0.00712907 0.00121115 3.44416
-0.121969 -0.011148 0.00340499 3.44536
-0.121903 0.00652043 0.00374933 3.46501
-0.121909 -0.00717351 -0.00629667 3.46906
-0.121887 0.00568887 0.00546977 3.49453
-0.121964 -0.00951965 -0.00648327 3.49716
-0.121967 0.00432489 0.00682756 3.52404
-0.122004 -0.00499948 -0.010525 3.5287
-0.122043 0.00502672 0.0123874 3.5566
-0.122093 -0.00709121 -0.00698566 3.56143
-0.122079 0.0118482 -0.00172246 3.59822
-0.122233 -0.00897694 -0.0036616 3.60663
-0.122308 0.00300582 0.0029928 3.63205
-0.122403 -0.00500068 -0.00157084 3.65229
-0.122441 0.00341484 0.00433412 3.67439
-0.122507 -0.0027291 -0.00199441 3.69313
-0.122556 -7.76058e-05 0.0044166 3.71139
-0.122579 -0.00563242 0.000471698 3.72327
-0.122527 0.00832185 -0.00267962 3.75298
-0.122604 -0.00326536 -0.00303118 3.76642
-0.122647 -2.61599e-05 0.00364172 3.78564
-0.122666 -0.00433588 -0.00341393 3.79631
-0.122646 0.00681156 0.000604314 3.81711
-0.122718 -0.00311374 -0.00338388 3.83007
-0.122771 -0.00123763 0.00684778 3.85741
-0.122781 0.00397988 -0.00137058 3.87429
-0.122838 0.00413763 -0.00228586 3.88638
-0.122945 -0.00158372 -0.00147519 3.91211
-0.123016 -0.0102699 0.00931805 3.93454
-0.122932 0.00481972 -0.00101673 3.9495
-0.122899 0.00922344 -0.0093259 3.96271
-0.12304 -0.00177937 0.00159498 3.98242
-0.123134 -0.00251394 0.00736992 4.00092
-0.123153 -0.00013962 -0.000991664 4.01399
-0.123169 0.00646716 -0.00380364 4.03438
-0.123275 0.000437846 0.000701544 4.05276
-0.123365 -0.00357194 0.00220708 4.06469
-0.123369 0.0054827 0.00173583 4.08237
-0.123426 -0.000454391 -0.00222312 4.09443
-0.123468 0.00619709 0.00661149 4.10774
-0.123553 -0.00457434 -0.00382765 4.11091
-0.123593 0.00604258 0.00519148 4.12964
-0.123694 -0.00374745 -0.00899747 4.12163
-0.123763 0.00156318 0.00542818 4.13433
-0.123847 0.00188404 -0.00170897 4.13087
-0.123928 0.0040889 0.00228827 4.13877
-0.12406 -0.00205719 -0.0017946 4.14387
-0.124139 -0.00151239 0.00256663 4.15983
-0.124197 -0.00196561 -0.00360088 4.1611
-0.124237 0.00778126 0.000989304 4.17007
-0.124353 0.00020519 -0.00347891 4.18483
-0.124486 0.00144143 0.00481602 4.19121
-0.12461 -0.0060986 -0.00390918 4.1922
-0.124646 0.00255872 0.00617236 4.21084
-0.124702 -0.00112096 -0.00172986 4.21289
-0.124758 0.00510329 0.00245511 4.21992
-0.124867 -0.000162536 0.000488095 4.22296
-0.124955 0.00379385 0.00246386 4.22356
-0.125063 -0.00172037 -0.000653129 4.22596
-0.125168 0.00212212 0.00119477 4.22062
-0.125269 -0.0026576 0.00160798 4.2254
-0.125336 0.00653465 0.00143161 4.22649
-0.12549 -0.00671989 -0.00874659 4.21518
-0.125592 -0.000708464 0.0145242 4.22357
-0.125656 -0.0110359 -0.00771875 4.20171
-0.125611 0.0134659 0.00132994 4.20779
-0.125759 -0.00301106 -0.0114454 4.19415
-0.125909 0.00125726 0.00651557 4.19831
-0.126051 -0.00725935 0.000271732 4.18376
-0.126078 0.000660315 0.00583587 4.17549
-0.126091 0.000339889 -0.00468954 4.1661
-0.12615 0.00120286 0.000854129 4.16437
-0.126245 0.00394114 0.00145414 4.16858
-0.126362 -0.00295059 0.00123509 4.15826
-0.126429 0.00231467 0.00288692 4.15647
-0.126492 0.00354904 -0.00096633 4.15277
-0.126574 0.000422558 0.00337559 4.15064
-0.126626 -0.000134609 0.00330519 4.14068
-0.126644 -0.000541012 -0.00124027 4.13006
-0.126657 0.000680184 -0.0018039 4.12749
-0.126714 0.00494125 -0.00392229 4.12619
-0.126845 -0.00328877 0.00100328 4.1279
-0.126923 -0.00538867 0.00618605 4.12068
-0.126909 0.00255828 -0.00243803 4.11936
-0.126944 0.00768421 -0.000479449 4.1229
-0.127079 -0.00023206 0.00147952 4.12495
-0.127169 0.00293301 0.0139919 4.1339
-0.127205 -0.00837886 -0.00231406 4.11781
-0.127137 0.0123663 0.00310361 4.1272
-0.12723 -0.00183357 -0.0147339 4.10777
-0.12737 0.00561886 0.0101558 4.12489
-0.127524 -0.0100189 0.00118144 4.12189
-0.127528 -0.000225017 0.00593497 4.11754
-0.127521 0.000336993 -0.00444324 4.11517
-0.127559 0.00700229 -0.00271511 4.11536
-0.127718 -0.00306619 -0.00259532 4.10688
-0.127834 -0.00294783 0.0085103 4.10196
-0.12785 0.00175354 0.0020793 4.09211
-0.127871 0.0028006 0.00164607 4.07921
-0.127949 -0.00231981 -0.00567841 4.06764
-0.12803 0.00310364 0.00287528 4.07014
-0.12812 -0.0039997 -0.00229698 4.06536
-0.12817 0.00433664 0.00351484 4.05752
-0.128257 0.00120218 -0.00677701 4.05279
-0.128374 0.00468698 -0.00166949 4.06597
-0.128569 -0.00323322 -0.000442189 4.07122
-0.128691 -0.000893296 0.00493066 4.07946
-0.128744 -0.00312394 -0.00144326 4.08584
-0.128769 0.00651194 -0.00828017 4.0996
-0.128901 0.000642827 0.00132168 4.11032
-0.129011 -0.00500834 0.00324108 4.12698
-0.129038 0.0044418 0.00581834 4.14791
-0.129084 -0.000199102 -0.00515782 4.15162
-0.129122 0.00679895 0.00392048 4.17618
-0.129252 -0.00156979 -0.00665182 4.18062
-0.12935 0.00408878 0.00771787 4.20875
-0.129438 -0.00753157 -0.00295498 4.2195
-0.129426 0.00707296 0.0079802 4.24043
-0.129463 -0.00100305 -0.00621054 4.25203
-0.129484 0.00993349 0.00533243 4.27697
-0.129605 -0.00867302 -0.0091776 4.28077
-0.129677 0.00902215 0.00914682 4.31082
-0.129831 -0.0136692 -0.00670964 4.31498
-0.129858 0.00632179 0.00900811 4.3445
-0.129957 -0.00731711 -0.011366 4.34194
-0.130015 0.0106417 0.00603379 4.37047
-0.13018 -0.00395339 -0.00324325 4.37563
-0.130291 0.00681328 0.00279335 4.38563
-0.130456 -0.00290889 0.000933166 4.39615
-0.13057 0.00094284 0.000872917 4.40357
-0.130672 -0.00717483 0.00271052 4.4125
-0.130694 0.00355282 -0.00118547 4.41918
-0.130784 0.00363025 -0.00141732 4.4275
-0.130919 0.00130566 0.00407628 4.43956
-0.131026 -0.00138853 0.000696555 4.45134
-0.131093 -0.00113329 0.00264865 4.45981
-0.131162 0.00055764 -0.0082723 4.46184
-0.131276 0.00643747 0.00232767 4.47915
-0.131471 -0.00648279 -0.00396819 4.478
-0.13159 0.00816153 0.00236495 4.49742
-0.131789 -0.00893592 -0.00431452 4.49149
-0.131879 0.00152722 0.00667931 4.49808
-0.131972 -0.00200882 -0.0106736 4.49761
-0.132096 0.00576768 0.00240483 4.50245
-0.132276 -0.00684927 -0.00205886 4.50438
-0.132383 0.00171282 0.00933918 4.51226
-0.132472 -0.00192247 -0.00904575 4.51229
-0.132564 0.00390409 0.000335927 4.53123
-0.132704 -0.0019309 -0.000613318 4.53165
-0.13281 0.00259603 0.00191133 4.53537
-0.132925 0.00435182 0.00655528 4.53735
-0.133044 -0.00604288 -0.00443584 4.53796
-0.133134 0.00754533 0.00309052 4.54771
-0.133314 -0.00953113 -0.00264146 4.54401
-0.133393 0.0058839 0.00412254 4.56027
-0.133549 -0.00199558 -0.00470522 4.55262
-0.133707 0.00484327 0.00508669 4.56722
-0.13391 -0.00591082 -0.00354897 4.56011
-0.134047 0.00634261 0.0065604 4.56592
-0.134206 -0.0100697 0.00113405 4.55877
-0.134223 0.00424048 0.00630278 4.57072
-0.134302 0.00533336 -0.0126371 4.56147
-0.134485 0.00404092 0.00410295 4.56591
-0.1347 -0.00544257 -0.000704919 4.57582
-0.134846 -0.00114612 0.00447025 4.57664
-0.134951 -0.00463168 -0.00207989 4.57838
-0.135001 0.00422214 -0.00231583 4.59046
-0.135132 -6.72484e-05 -0.00628735 4.59616
-0.135299 0.00277567 0.000423661 4.60322
-0.135497 -0.00268258 -0.00186637 4.60638
-0.135614 0.00812629 0.00522763 4.62156
-0.135771 -0.00621593 -0.00613806 4.61972
-0.135867 0.00480937 0.00518979 4.63953
-0.136021 0.000896287 -0.0077759 4.63535
-0.136177 0.000686605 0.00615483 4.63741
-0.1363 -0.00370549 -0.00515881 4.63034
-0.136398 0.00629365 0.00337273 4.62802
-0.136529 -0.00229076 3.35008e-05 4.61305
-0.136625 0.0110843 -0.00137482 4.61615
-0.136836 -0.00510779 0.00287462 4.61231
-0.136936 -0.00219449 0.00508781 4.61261
-0.136981 -0.00190743 -0.00378868 4.60636
-0.137006 -0.000717422 0.0029957 4.60893
-0.137032 0.00417864 -0.00413134 4.60504
-0.137121 0.00162208 -0.000324869 4.60592
-0.137236 -2.46453e-05 0.00254712 4.61066
-0.137356 0.000954237 0.00357848 4.61212
-0.13747 -0.00221746 -0.000246862 4.6128
-0.13755 0.00238662 0.00132091 4.61144
-0.137627 0.000269564 0.000427207 4.60742
-0.137706 0.00370521 -0.00606533 4.60558
-0.137835 0.001684 0.00182557 4.60842
-0.137965 0.00202276 -0.00579052 4.60717
-0.138118 0.000988485 0.00253587 4.61655
-0.138241 -0.006212 0.00265775 4.60149
-0.138239 0.000366202 -0.00346862 4.59949
-0.138282 0.00113979 0.000309585 4.59643
-0.138346 0.00365857 0.00295063 4.60258
-0.138445 -0.000230188 0.00309441 4.60108
-0.138503 -0.00205347 0.00991011 4.59584
-0.138494 -0.00205543 -0.00103321 4.57645
-0.13844 0.00165009 0.00721872 4.57005
-0.138422 -0.00135707 -0.00900058 4.54967
-0.138455 0.00712771 0.00319512 4.54422
-0.138574 -0.00565535 -0.000489043 4.5308
-0.13861 0.00997117 0.00406112 4.5287
-0.138702 -0.0034445 -0.00342349 4.5169
-0.138734 0.000564557 0.00559219 4.50993
-0.138747 -0.0034428 -0.00768657 4.49394
-0.138743 0.00524339 0.00290728 4.49919
-0.138776 -0.00835589 0.00170486 4.4942
-0.138689 0.00144944 0.0128576 4.49962
-0.138599 -0.00276696 -0.00752327 4.47615
-0.138534 0.0063954 0.00415728 4.47555
-0.138537 -0.00204637 0.00103928 4.46181
-0.138485 -0.000881556 0.000492172 4.46327
-0.138429 0.00311222 0.000857502 4.46268
-0.138416 0.00573786 -0.00309079 4.45442
-0.138467 -0.00235661 0.00196106 4.44824
-0.138462 -0.0014303 0.00668812 4.4388
-0.138406 0.000321653 -0.00509993 4.42262
-0.138412 0.00126796 -0.00118923 4.40961
-0.138448 -0.0032583 0.00794977 4.39719
-0.138416 -0.00510138 0.000786837 4.37553
-0.1383 0.00743498 0.00312916 4.36854
-0.138257 2.17927e-05 -0.00184325 4.34588
-0.138258 0.00784805 -0.00155573 4.33367
-0.138346 -0.0064238 0.00252496 4.31316
-0.138325 -0.00338344 0.00546532 4.28938
-0.13821 -0.00510011 0.00146856 4.26965
-0.138059 0.00520216 0.00311088 4.25129
-0.137998 0.000623663 -0.00509317 4.22519
-0.13799 -0.00403543 0.00964912 4.20262
-0.137921 -0.00345098 -0.00181869 4.1768
-0.137808 0.00393673 0.00281098 4.16132
-0.137748 -0.00426826 0.0029976 4.13033
-0.137643 0.00182703 0.0035182 4.1031
-0.137578 -0.00787966 0.00220255 4.06684
-0.137433 0.00619105 0.0048534 4.04734
-0.137368 -0.00476605 -0.00101809 4.01641
-0.137257 -0.00121452 0.00958806 3.99433
-0.137148 0.00593153 -0.00450602 3.97396
-0.137157 -0.00375098 0.0118825 3.94939
-0.137107 -0.00545249 0.000908879 3.92275
-0.137011 -0.00060576 0.0121851 3.89315
-0.136923 -0.00649469 -0.00515658 3.84819
-0.136829 0.0133948 -0.000784638 3.82599
-0.136882 -0.0138169 0.00457318 3.78691
-0.136769 0.00535399 0.00555566 3.76147
-0.136744 -0.00207834 -0.00381145 3.72083
-0.13672 0.00163505 0.00847978 3.6951
-0.13671 -0.0028504 0.00302917 3.65106
-0.13666 -0.00579894 0.00467237 3.60923
-0.136551 0.00816143 -0.000733554 3.58291
-0.136554 -0.00104824 0.00324329 3.5339
-0.136515 -0.0040233 0.00666299 3.50681
-0.136458 0.00854449 -0.00434407 3.46337
-0.136509 -0.00560664 0.00781573 3.42816
-0.136484 0.00150942 0.00491983 3.39091
-0.136438 -0.00774023 0.00374511 3.3604
-0.136307 0.00875192 0.000896172 3.34226
-0.136321 0.00098107 -0.00202813 3.31465
-0.13637 -0.00415011 0.00922473 3.30029
-0.13637 0.00390332 -0.00364008 3.28557
-0.136428 0.00451773 -0.0052872 3.27049
-0.136565 0.00150208 0.000336899 3.26166
-0.13672 -0.000655791 -0.000430445 3.2491
-0.136822 -0.00530088 0.00967222 3.24241
-0.136788 -0.00203866 -0.00402279 3.21882
-0.136748 0.00591845 0.00168661 3.20926
-0.136815 0.00117167 -0.00523441 3.18774
-0.136941 0.00257704 0.00228166 3.17332
-0.13705 -0.0118591 0.01295 3.15877
-0.136965 0.00779133 -0.00347452 3.14366
-0.136976 0.00114888 0.00013388 3.1157
-0.137011 0.00169278 -0.00340176 3.09583