File: Post Processing/Pure Ni/Ni_Tensile.def1.txt
# Fix print output for fix def1
1.2558e-15 -0.166933 -0.751398 0.0551572
0.0002 0.297242 0.00947931 0.556644
0.0004 -0.0309311 -0.0705395 0.407328
0.0006 0.012121 0.0506287 0.490478
0.0008 -0.0245156 -0.00627987 0.476296
0.001 0.0211128 0.00772696 0.523407
0.0012 -0.00106995 -0.0141799 0.527926
0.0014 0.00634048 0.0108292 0.561879
0.0016 -0.00895211 -0.000409747 0.573245
0.0018 0.00656717 0.00513437 0.604137
0.002 0.00030805 -0.00658959 0.619438
0.0022 0.00473586 0.00385404 0.647123
0.0024 -0.00458769 7.81679e-06 0.663827
0.0026 0.00248699 0.00408117 0.69055
0.0028 0.000124047 -0.00346732 0.709148
0.003 0.00382201 0.00138742 0.734686
0.0032 -0.00225815 -0.000250788 0.753706
0.0034 0.000887657 0.00326657 0.778593
0.0036 -0.000269229 -0.00155493 0.798779
0.0038 0.00296434 0.000418833 0.823236
0.004 -0.000714049 -0.00056729 0.843661
0.0042 0.000331106 0.00239776 0.867534
0.0044 -0.000551199 -0.000277607 0.888689
0.0046 0.00204492 0.000180847 0.912463
0.0048 0.000272308 -0.000713189 0.933881
0.005 0.000299924 0.00147863 0.957153
0.0052 -0.000584495 0.000467164 0.978984
0.0054 0.00114438 0.000290502 1.00228
0.0056 0.000766848 -0.000593655 1.02444
0.0058 0.000481047 0.000650982 1.04737
0.006 -0.000347222 0.000750275 1.06971
0.0062 0.000410523 0.000472447 1.09267
0.0064 0.000852718 -0.000250358 1.11536
0.0066 0.000633433 6.00891e-05 1.13814
0.0068 6.76581e-05 0.000698921 1.1609
0.007 -2.0575e-05 0.000549014 1.18365
0.0072 0.000702943 0.000190709 1.20673
0.0074 0.000623506 -0.000213153 1.22946
0.0076 0.000487989 0.000498973 1.25257
0.0078 -0.000134196 0.000452917 1.27525
0.008 0.000504362 0.000557088 1.29857
0.0082 0.000457219 -0.000202704 1.32135
0.0084 0.000770713 0.000334228 1.34473
0.0086 -2.43072e-05 0.000239845 1.36746
0.0088 0.000397153 0.000733948 1.39095
0.009 0.000234941 -3.58405e-05 1.4138
0.0092 0.000844868 0.000293651 1.43739
0.0094 0.00016397 2.97906e-05 1.46025
0.0096 0.000420677 0.000707646 1.48386
0.0098 7.10086e-05 0.000137728 1.50683
0.01 0.000746132 0.000366853 1.53055
0.0102 0.000302608 -7.28191e-05 1.55359
0.0104 0.000523174 0.000555827 1.5773
0.0106 3.71423e-05 0.000217803 1.60042
0.0108 0.00057737 0.00046805 1.62421
0.011 0.000333526 -3.8277e-05 1.64746
0.0112 0.000606345 0.000393981 1.67126
0.0114 0.000127177 0.0002027 1.69456
0.0116 0.000448174 0.000511213 1.71841
0.0118 0.000290373 8.41265e-05 1.74185
0.012 0.000606495 0.000306264 1.76573
0.0122 0.000266328 0.000153796 1.78924
0.0124 0.000405451 0.000463531 1.81313
0.0126 0.000247655 0.000206397 1.83675
0.0128 0.000526854 0.000296291 1.8607
0.013 0.000363182 0.000129162 1.8844
0.0132 0.000422796 0.000361006 1.90836
0.0134 0.000259421 0.000273065 1.93216
0.0136 0.000425165 0.000322805 1.95617
0.0138 0.000393058 0.000167242 1.98007
0.014 0.000445337 0.000266896 2.00411
0.0142 0.000320487 0.000269877 2.02807
0.0144 0.000356988 0.000325343 2.05215
0.0146 0.00037611 0.000239104 2.07621
0.0148 0.000430995 0.0002268 2.10034
0.015 0.000390384 0.000245594 2.12447
0.0152 0.000345221 0.000288398 2.14863
0.0154 0.000358751 0.000290898 2.17284
0.0156 0.000384613 0.000232811 2.19706
0.0158 0.00042503 0.00024154 2.22134
0.016 0.000365701 0.000239405 2.2456
0.0162 0.000370521 0.000300211 2.26994
0.0164 0.000340411 0.000245423 2.29426
0.0166 0.000412283 0.00025734 2.31867
0.0168 0.000377801 0.000210087 2.34305
0.017 0.000400913 0.000281145 2.36751
0.0172 0.000330042 0.000244315 2.39193
0.0174 0.000392038 0.000281954 2.41646
0.0176 0.000368742 0.000212564 2.44095
0.0178 0.000415959 0.000258793 2.46554
0.018 0.000347842 0.00022809 2.49008
0.0182 0.000385895 0.00028724 2.51472
0.0184 0.000350644 0.000228117 2.53932
0.0186 0.000410531 0.000256987 2.56402
0.0188 0.000366956 0.000215023 2.58868
0.019 0.000389336 0.000266521 2.61342
0.0192 0.000347413 0.000236591 2.63814
0.0194 0.000391892 0.000263109 2.66294
0.0196 0.0003717 0.000219788 2.68772
0.0198 0.000396238 0.000248527 2.71257
0.02 0.00035945 0.000231563 2.7374
0.0202 0.000376243 0.000256038 2.7623
0.0204 0.000363246 0.000227665 2.7872
0.0206 0.000392071 0.000239914 2.81215
0.0208 0.000378102 0.000229022 2.83711
0.021 0.00038042 0.000246986 2.8621
0.0212 0.00036479 0.000237244 2.88711
0.0214 0.000378073 0.000239017 2.91216
0.0216 0.000380174 0.0002278 2.93723
0.0218 0.000382171 0.000231747 2.96233
0.022 0.000374803 0.00023611 2.98746
0.0222 0.000369547 0.000235715 3.0126
0.0224 0.000372032 0.000229204 3.03778
0.0226 0.000379197 0.000225946 3.06299
0.0228 0.000384191 0.000231706 3.08822
0.023 0.000369406 0.000225842 3.11347
0.0232 0.000373519 0.000233611 3.13875
0.0234 0.000372637 0.00022626 3.16406
0.0236 0.000381324 0.000227211 3.18939
0.0238 0.00037425 0.000218337 3.21475
0.024 0.000379131 0.000229082 3.24013
0.0242 0.000368865 0.000222088 3.26554
0.0244 0.000378728 0.000228402 3.29097
0.0246 0.000373285 0.000217068 3.31643
0.0248 0.000380689 0.000223472 3.34192
0.025 0.000370855 0.000216156 3.36742
0.0252 0.000376516 0.000223328 3.39295
0.0254 0.000372022 0.000216517 3.41851
0.0256 0.000380884 0.000222065 3.44409
0.0258 0.000374265 0.000213758 3.46969
0.026 0.000377306 0.000217794 3.49532
0.0262 0.000373166 0.000213349 3.52097
0.0264 0.00037914 0.000217252 3.54665
0.0266 0.000374853 0.000211547 3.57235
0.0268 0.000376399 0.000212946 3.59807
0.027 0.000374759 0.000210243 3.62381
0.0272 0.000380209 0.000215845 3.64959
0.0274 0.000373927 0.000208559 3.67537
0.0276 0.000376757 0.000207438 3.70119
0.0278 0.000378845 0.000207464 3.72703
0.028 0.000377295 0.000208449 3.75289
0.0282 0.000375369 0.000206768 3.77877
0.0284 0.000375802 0.000205175 3.80467
0.0286 0.000376617 0.000203777 3.8306
0.0288 0.000379178 0.000205011 3.85655
0.029 0.000378571 0.000203419 3.88252
0.0292 0.000376155 0.000201052 3.90852
0.0294 0.000378858 0.000202972 3.93453
0.0296 0.00037845 0.000200081 3.96057
0.0298 0.00037874 0.000198906 3.98663
0.03 0.000377186 0.000197285 4.0127
0.0302 0.00037953 0.000198501 4.03881
0.0304 0.000378982 0.000196752 4.06493
0.0306 0.000377892 0.000195527 4.09107
0.0308 0.000376314 0.000193401 4.11723
0.031 0.000380378 0.000194548 4.14342
0.0312 0.00037927 0.000191904 4.16963
0.0314 0.000378933 0.00019061 4.19585
0.0316 0.000378548 0.000189814 4.2221
0.0318 0.000379066 0.000191003 4.24837
0.032 0.000380991 0.000191134 4.27466
0.0322 0.000383576 0.00018909 4.30096
0.0324 0.000379881 0.00018493 4.32729
0.0326 0.000377479 0.000184548 4.35363
0.0328 0.000378623 0.000183868 4.38
0.033 0.000383629 0.000186354 4.40639
0.0332 0.000380235 0.000182274 4.4328
0.0334 0.00037976 0.000179418 4.45922
0.0336 0.000381638 0.000179029 4.48567
0.0338 0.000379379 0.000177407 4.51213
0.034 0.000380008 0.000177911 4.53861
0.0342 0.000384094 0.000179249 4.56512
0.0344 0.00038478 0.000177611 4.59164
0.0346 0.00038297 0.000174334 4.61818
0.0348 0.000380109 0.000170486 4.64473
0.035 0.000380885 0.000170575 4.67131
0.0352 0.000386508 0.000174806 4.69791
0.0354 0.0003865 0.000172023 4.72452
0.0356 0.000384174 0.000167778 4.75115
0.0358 0.000385006 0.00016826 4.77779
0.036 0.000386937 0.000169291 4.80446
0.0362 0.000386615 0.00016683 4.83114
0.0364 0.000385133 0.000164049 4.85784
0.0366 0.000387553 0.000165083 4.88456
0.0368 0.000387911 0.000162884 4.9113
0.037 0.000387026 0.000161549 4.93805
0.0372 0.000389116 0.000161816 4.96482
0.0374 0.000389252 0.00015903 4.9916
0.0376 0.000386458 0.000155909 5.0184
0.0378 0.000391036 0.000159388 5.04522
0.038 0.00039272 0.000158602 5.07206
0.0382 0.000390421 0.000155443 5.0989
0.0384 0.000387416 0.000152123 5.12577
0.0386 0.000391264 0.000153129 5.15265
0.0388 0.00039185 0.000150967 5.17955
0.039 0.000391846 0.000150423 5.20646
0.0392 0.000394637 0.000151877 5.23339
0.0394 0.000390983 0.000146956 5.26033
0.0396 0.000391295 0.000144906 5.28728
0.0398 0.000395507 0.00014654 5.31426
0.04 0.000395712 0.000144421 5.34125
0.0402 0.0003969 0.000144814 5.36825
0.0404 0.000395741 0.000143161 5.39527
0.0406 0.000395599 0.000140845 5.4223
0.0408 0.000393563 0.000135701 5.44934
0.041 0.00039837 0.000137655 5.4764
0.0412 0.000402463 0.000139867 5.50348
0.0414 0.000400784 0.00013798 5.53057
0.0416 0.000395953 0.000132457 5.55766
0.0418 0.000400198 0.000134184 5.58478
0.042 0.00040147 0.000131436 5.61191
0.0422 0.000401561 0.000130179 5.63905
0.0424 0.000403393 0.000129515 5.66621
0.0426 0.000404938 0.000128516 5.69337
0.0428 0.000403889 0.000125245 5.72055
0.043 0.000405367 0.000125422 5.74774
0.0432 0.000408244 0.000126755 5.77495
0.0434 0.000405024 0.00012077 5.80216
0.0436 0.00040549 0.000118499 5.82939
0.0438 0.000410557 0.000121269 5.85663
0.044 0.000410709 0.000120323 5.88388
0.0442 0.000409786 0.000117214 5.91114
0.0444 0.000411019 0.000114141 5.93842
0.0446 0.000413117 0.000113687 5.9657
0.0448 0.000411594 0.000110176 5.993
0.045 0.000415119 0.000112605 6.02031
0.0452 0.000414922 0.000111234 6.04762
0.0454 0.000414317 0.000107526 6.07495
0.0456 0.000419086 0.000107392 6.10229
0.0458 0.000418923 0.000103575 6.12964
0.046 0.000418718 0.000101899 6.15699
0.0462 0.000420355 0.000102971 6.18436
0.0464 0.0004195 0.000100305 6.21174
0.0466 0.000421326 9.72854e-05 6.23912
0.0468 0.000424757 9.56897e-05 6.26652
0.047 0.000425729 9.46648e-05 6.29392
0.0472 0.000423873 9.2342e-05 6.32133
0.0474 0.000425108 9.21371e-05 6.34876
0.0476 0.000429231 9.2053e-05 6.37619
0.0478 0.000427564 8.51962e-05 6.40362
0.048 0.000433011 8.68566e-05 6.43107
0.0482 0.000432906 8.57919e-05 6.45852
0.0484 0.000430426 8.22856e-05 6.48598
0.0486 0.000431171 7.79919e-05 6.51345
0.0488 0.000438498 8.10469e-05 6.54093
0.049 0.000436504 7.77839e-05 6.56842
0.0492 0.000437379 7.52898e-05 6.59591
0.0494 0.000441675 7.41505e-05 6.62341
0.0496 0.000440611 7.00057e-05 6.65091
0.0498 0.000440977 6.85581e-05 6.67842
0.05 0.00044544 6.93864e-05 6.70594
0.0502 0.000446662 6.68014e-05 6.73347
0.0504 0.000447252 6.38118e-05 6.761
0.0506 0.000451315 6.32954e-05 6.78853
0.0508 0.00045265 6.1547e-05 6.81608
0.051 0.000451348 5.78215e-05 6.84362
0.0512 0.000456631 5.97899e-05 6.87117
0.0514 0.000456512 5.5209e-05 6.89873
0.0516 0.000458111 5.21595e-05 6.92629
0.0518 0.000457683 4.73301e-05 6.95385
0.052 0.000460187 4.67429e-05 6.98142
0.0522 0.000463367 4.8241e-05 7.00899
0.0524 0.00046621 4.56828e-05 7.03657
0.0526 0.000469684 4.3029e-05 7.06415
0.0528 0.000469621 3.95659e-05 7.09173
0.053 0.000466868 3.30675e-05 7.11931
0.0532 0.00047248 3.51002e-05 7.1469
0.0534 0.000476551 3.53718e-05 7.17449
0.0536 0.000479669 3.27726e-05 7.20208
0.0538 0.000478658 2.47652e-05 7.22966
0.054 0.000480728 2.44189e-05 7.25726
0.0542 0.000480771 2.20459e-05 7.28485
0.0544 0.00048818 2.27608e-05 7.31245
0.0546 0.000490196 1.84238e-05 7.34004
0.0548 0.000490027 1.45715e-05 7.36763
0.055 0.000491711 1.22233e-05 7.39523
0.0552 0.000497163 1.0584e-05 7.42282
0.0554 0.000498095 5.97963e-06 7.45041
0.0556 0.000500576 3.66894e-06 7.478
0.0558 0.000506223 2.80605e-06 7.50559
0.056 0.000505954 -1.54683e-06 7.53318
0.0562 0.000510986 -2.33056e-06 7.56077
0.0564 0.00051379 -5.57206e-06 7.58835
0.0566 0.000514068 -1.03055e-05 7.61593
0.0568 0.000516182 -1.36209e-05 7.64351
0.057 0.000522848 -1.38336e-05 7.67108
0.0572 0.000523332 -1.88411e-05 7.69865
0.0574 0.000529199 -1.90408e-05 7.72622
0.0576 0.000531477 -2.46538e-05 7.75379
0.0578 0.000530555 -3.10858e-05 7.78134
0.058 0.000538279 -2.87659e-05 7.8089
0.0582 0.00054162 -3.33215e-05 7.83645
0.0584 0.000546673 -3.52436e-05 7.86399
0.0586 0.000547151 -4.1368e-05 7.89153
0.0588 0.00054996 -4.66611e-05 7.91906
0.059 0.000554182 -5.0988e-05 7.94658
0.0592 0.000561121 -4.88348e-05 7.9741
0.0594 0.000565625 -5.11159e-05 8.00162
0.0596 0.000566271 -5.93313e-05 8.02911
0.0598 0.000566659 -6.60178e-05 8.0566
0.06 0.000574156 -6.66425e-05 8.08409
0.0602 0.000581865 -6.87845e-05 8.11157
0.0604 0.000585853 -7.39113e-05 8.13903
0.0606 0.000589802 -7.70434e-05 8.16648
0.0608 0.000590791 -8.39965e-05 8.19393
0.061 0.000598581 -8.64277e-05 8.22136
0.0612 0.000602522 -9.11508e-05 8.24878
0.0614 0.00060852 -9.54802e-05 8.27619
0.0616 0.000611589 -0.000101768 8.30358
0.0618 0.000619527 -0.000102188 8.33096
0.062 0.000621891 -0.000110244 8.35832
0.0622 0.000630769 -0.000112791 8.38568
0.0624 0.000633303 -0.000120365 8.41301
0.0626 0.000641396 -0.000123494 8.44033
0.0628 0.000648605 -0.000128804 8.46764
0.063 0.000654075 -0.000131924 8.49492
0.0632 0.000659118 -0.000137635 8.52219
0.0634 0.000668532 -0.000141781 8.54944
0.0636 0.0006701 -0.000151893 8.57667
0.0638 0.000681807 -0.000153269 8.60388
0.064 0.000690318 -0.000157677 8.63108
0.0642 0.00069182 -0.000166738 8.65824
0.0644 0.000702732 -0.000168881 8.6854
0.0646 0.000707733 -0.000179372 8.71252
0.0648 0.000716505 -0.000186472 8.73963
0.065 0.000726606 -0.000189216 8.76671
0.0652 0.000734548 -0.000193843 8.79377
0.0654 0.000741335 -0.000202864 8.8208
0.0656 0.000749115 -0.000211576 8.8478
0.0658 0.00075924 -0.000219364 8.87478
0.066 0.000772222 -0.000223961 8.90174
0.0662 0.000778373 -0.000231972 8.92866
0.0664 0.000786547 -0.000239327 8.95555
0.0666 0.000798311 -0.000247953 8.98241
0.0668 0.000809711 -0.000256873 9.00924
0.067 0.000821006 -0.000264676 9.03604
0.0672 0.000832985 -0.000273337 9.0628
0.0674 0.00084196 -0.000283099 9.08952
0.0676 0.000853068 -0.000292625 9.11621
0.0678 0.000868182 -0.00030113 9.14287
0.068 0.00088106 -0.000311374 9.16948
0.0682 0.000895331 -0.00032014 9.19606
0.0684 0.000909581 -0.000330725 9.2226
0.0686 0.000922198 -0.000342902 9.24909
0.0688 0.000937778 -0.000352007 9.27554
0.069 0.000955928 -0.000361045 9.30194
0.0692 0.000967355 -0.00037856 9.32829
0.0694 0.000987322 -0.00038775 9.3546
0.0696 0.00100415 -0.000401815 9.38086
0.0698 0.0010217 -0.000413998 9.40707
0.07 0.00103783 -0.000427824 9.43323
0.0702 0.00105862 -0.000438452 9.45933
0.0704 0.0010798 -0.000453866 9.48538
0.0706 0.00110013 -0.00047076 9.51137
0.0708 0.00111856 -0.000487565 9.5373
0.071 0.00114698 -0.000497298 9.56318
0.0712 0.00116404 -0.000519288 9.58899
0.0714 0.00119244 -0.000534987 9.61474
0.0716 0.00121729 -0.000556027 9.64042
0.0718 0.00124537 -0.000572856 9.66604
0.072 0.00127203 -0.000589773 9.69159
0.0722 0.00129739 -0.000612582 9.71706
0.0724 0.00133145 -0.000634108 9.74246
0.0726 0.001364 -0.000656775 9.76778
0.0728 0.00139648 -0.000680934 9.79302
0.073 0.0014302 -0.000705552 9.81818
0.0732 0.00146434 -0.000731862 9.84325
0.0734 0.00150782 -0.000755409 9.86825
0.0736 0.00154902 -0.000783904 9.89315
0.0738 0.0015872 -0.000816105 9.91795
0.074 0.00163316 -0.000844361 9.94266
0.0742 0.00167755 -0.000878719 9.96728
0.0744 0.00172473 -0.000913502 9.99179
0.0746 0.0017777 -0.000947036 10.0162
0.0748 0.0018339 -0.000982446 10.0405
0.075 0.00188702 -0.001025 10.0647
0.0752 0.00194643 -0.00106532 10.0888
0.0754 0.00200746 -0.00110844 10.1127
0.0756 0.00207205 -0.00115322 10.1365
0.0758 0.00213724 -0.0012018 10.1603
0.076 0.00221162 -0.00124785 10.1838
0.0762 0.00228532 -0.00130321 10.2073
0.0764 0.00236114 -0.00136109 10.2306
0.0766 0.00244363 -0.0014176 10.2538
0.0768 0.00252936 -0.00147621 10.2768
0.077 0.00261641 -0.00153966 10.2997
0.0772 0.00271224 -0.00160564 10.3224
0.0774 0.00280448 -0.00168184 10.3449
0.0776 0.0029066 -0.0017511 10.3673
0.0778 0.00300742 -0.0018269 10.3895
0.078 0.00311726 -0.00190575 10.4116
0.0782 0.00323007 -0.00198989 10.4334
0.0784 0.00334574 -0.00207549 10.4551
0.0786 0.00346422 -0.00216371 10.4765
0.0788 0.00358042 -0.00225796 10.4978
0.079 0.00370957 -0.00234895 10.5188
0.0792 0.00383868 -0.00244737 10.5396
0.0794 0.00396712 -0.0025504 10.5601
0.0796 0.00409922 -0.00265333 10.5805
0.0798 0.00423308 -0.00275775 10.6005
0.08 0.00437238 -0.00286301 10.6203
0.0802 0.00450979 -0.00297334 10.6399
0.0804 0.00465554 -0.00308067 10.6591
0.0806 0.00479527 -0.00319893 10.6781
0.0808 0.0049383 -0.00331721 10.6968
0.081 0.00509062 -0.00343291 10.7151
0.0812 0.00524043 -0.00355747 10.7331
0.0814 0.00539701 -0.00368105 10.7508
0.0816 0.00555519 -0.00380806 10.7682
0.0818 0.00571951 -0.00393845 10.7852
0.082 0.00588548 -0.00407724 10.8018
0.0822 0.00605766 -0.00421903 10.818
0.0824 0.00624029 -0.00436335 10.8338
0.0826 0.00642904 -0.00451237 10.8493
0.0828 0.00662374 -0.00467072 10.8643
0.083 0.00683068 -0.00483685 10.8788
0.0832 0.00704099 -0.00501077 10.8929
0.0834 0.0072647 -0.00518465 10.9066
0.0836 0.00749413 -0.00537092 10.9198
0.0838 0.0077386 -0.00556382 10.9324
0.084 0.00799198 -0.00576755 10.9446
0.0842 0.00825515 -0.00598041 10.9562
0.0844 0.0085292 -0.00620235 10.9673
0.0846 0.00881699 -0.00643088 10.9779
0.0848 0.00912183 -0.00666825 10.9878
0.085 0.00943516 -0.00692031 10.9971
0.0852 0.00976044 -0.00718102 11.0059
0.0854 0.0100999 -0.00744998 11.0139
0.0856 0.0104516 -0.0077339 11.0213
0.0858 0.0108256 -0.00802257 11.028
0.086 0.0112049 -0.00832687 11.034
0.0862 0.0116024 -0.0086393 11.0392
0.0864 0.0120066 -0.00896681 11.0437
0.0866 0.0124314 -0.00929848 11.0474
0.0868 0.0128715 -0.00964356 11.0503
0.087 0.013324 -0.0100028 11.0524
0.0872 0.0137944 -0.0103715 11.0536
0.0874 0.0142793 -0.0107565 11.0539
0.0876 0.0147831 -0.0111526 11.0533
0.0878 0.0153017 -0.0115618 11.0518
0.088 0.0158415 -0.011982 11.0493
0.0882 0.0163963 -0.0124128 11.0458
0.0884 0.0169649 -0.0128577 11.0413
0.0886 0.0175514 -0.0133147 11.0358
0.0888 0.0181479 -0.0137871 11.0292
0.089 0.0187679 -0.0142613 11.0215
0.0892 0.0193981 -0.0147505 11.0126
0.0894 0.0200476 -0.0152507 11.0027
0.0896 0.0207082 -0.0157633 10.9915
0.0898 0.0213857 -0.0162839 10.9791
0.09 0.0220756 -0.0168127 10.9655
0.0902 0.0227758 -0.0173514 10.9507
0.0904 0.0234959 -0.0178954 10.9345
0.0906 0.0242247 -0.0184504 10.9171
0.0908 0.0249612 -0.0190085 10.8983
0.091 0.025704 -0.0195698 10.8782
0.0912 0.0264562 -0.0201376 10.8567
0.0914 0.0272181 -0.0207076 10.8338
0.0916 0.0279876 -0.0212786 10.8095
0.0918 0.0287588 -0.021856 10.7837
0.092 0.029538 -0.0224301 10.7565
0.0922 0.0303137 -0.0230052 10.7279
0.0924 0.0310911 -0.023575 10.6977
0.0926 0.0318668 -0.024136 10.6661
0.0928 0.0326304 -0.0246922 10.633
0.093 0.0333894 -0.0252363 10.5983
0.0932 0.0341341 -0.0257719 10.5622
0.0934 0.0348738 -0.0262938 10.5245
0.0936 0.0355942 -0.0268065 10.4853
0.0938 0.0363077 -0.0272995 10.4446
0.094 0.0369984 -0.0277769 10.4024
0.0942 0.0376627 -0.0282406 10.3586
0.0944 0.038311 -0.0286757 10.3134
0.0946 0.0389284 -0.0290887 10.2667
0.0948 0.0395232 -0.0294788 10.2186
0.095 0.0400872 -0.0298479 10.169
0.0952 0.0406184 -0.0301893 10.118
0.0954 0.0411159 -0.0305005 10.0656
0.0956 0.0415712 -0.0307792 10.0118
0.0958 0.0419957 -0.0310196 9.95663
0.096 0.0423675 -0.0312362 9.90019
0.0962 0.0427007 -0.0314158 9.84249
0.0964 0.0429944 -0.0315565 9.78359
0.0966 0.0432432 -0.0316656 9.7235
0.0968 0.0434425 -0.0317457 9.66228
0.097 0.043599 -0.0317891 9.59997
0.0972 0.0437127 -0.0317945 9.53663
0.0974 0.0437794 -0.0317604 9.47232
0.0976 0.0437919 -0.0316928 9.40709
0.0978 0.0437607 -0.0315872 9.34099
0.098 0.0436743 -0.0314519 9.27408
0.0982 0.0435446 -0.0312802 9.20643
0.0984 0.0433761 -0.0310742 9.1381
0.0986 0.043162 -0.0308352 9.06915
0.0988 0.0429001 -0.0305703 8.99965
0.099 0.0426007 -0.0302758 8.92967
0.0992 0.0422598 -0.0299521 8.85926
0.0994 0.0418843 -0.0296045 8.7885
0.0996 0.0414782 -0.0292372 8.71744
0.0998 0.0410423 -0.0288466 8.64614
0.1 0.0405728 -0.0284396 8.57465
0.1002 0.0400797 -0.0280162 8.50304
0.1004 0.0395556 -0.0275758 8.43136
0.1006 0.0390109 -0.0271178 8.35968
0.1008 0.0384527 -0.0266465 8.28805
0.101 0.0378694 -0.0261716 8.21652
0.1012 0.0372801 -0.0256916 8.14513
0.1014 0.0366787 -0.0252109 8.07394
0.1016 0.0360695 -0.0247211 8.00298
0.1018 0.0354615 -0.0242277 7.93229
0.102 0.0348468 -0.023742 7.8619
0.1022 0.0342257 -0.0232596 7.79186
0.1024 0.0336141 -0.0227747 7.72219
0.1026 0.033003 -0.0222955 7.65292
0.1028 0.0323915 -0.0218257 7.58406
0.103 0.0317915 -0.0213598 7.51566
0.1032 0.031193 -0.0209037 7.4477
0.1034 0.0306105 -0.0204537 7.38023
0.1036 0.0300369 -0.0200133 7.31325
0.1038 0.0294748 -0.019585 7.24676
0.104 0.0289339 -0.0191784 7.18076
0.1042 0.0284369 -0.0188014 7.11519
0.1044 0.0280334 -0.0184797 7.04993
0.1046 0.0278475 -0.0183039 6.9846
0.1048 0.02822 -0.0185082 6.91816
0.105 0.030125 -0.019713 6.84783
0.1052 0.0363104 -0.0237254 6.76574
0.1054 0.0556598 -0.03539 6.65019
0.1056 0.137401 -0.0754896 6.43714
0.1058 0.327814 -0.198081 5.9598
0.106 0.407235 -0.296783 5.20207
0.1062 0.100492 -0.100324 4.76888
0.1064 -0.0147439 0.0471042 4.77498
0.1066 -0.0282171 0.0010156 4.7912
0.1068 -0.0910066 0.0792001 4.8951
0.107 -0.0809457 0.0737167 5.06029
0.1072 0.0218347 -0.0019093 5.13895
0.1074 0.0120308 -0.0138333 5.13556
0.1076 -0.0268737 0.02986 5.14906
0.1078 0.0141532 -0.00760862 5.18013
0.108 0.0187626 -0.0148537 5.18185
0.1082 -0.00362476 0.00970702 5.15826
0.1084 -0.00094829 0.00355426 5.12158
0.1086 0.00400147 -0.00259808 5.08582
0.1088 -0.00390512 0.00604637 5.05678
0.109 0.00266654 0.00266807 5.02586
0.1092 0.00866964 -0.00549943 4.97506
0.1094 0.01449 -0.00604839 4.90133
0.1096 0.00588555 -0.00351954 4.80352
0.1098 0.00255417 0.00460798 4.69543
0.11 0.000718605 -0.000280931 4.60074
0.1102 0.00610565 0.00317919 4.51415
0.1104 -4.5359e-05 -0.00104104 4.4227
0.1106 0.0146035 -0.00479416 4.33611
0.1108 0.00821726 -0.00595669 4.23314
0.111 0.00239385 0.00264462 4.14339
0.1112 0.00602766 -0.00375962 4.05804
0.1114 0.0107728 -0.00318671 3.98229
0.1116 0.00499556 0.00131982 3.89829
0.1118 0.00263862 0.000372131 3.82886
0.112 0.00642663 -0.00244943 3.77905
0.1122 0.00626103 -0.00529807 3.72019
0.1124 0.0142274 -0.0051647 3.66759
0.1126 -0.00236793 -0.00165754 3.60268
0.1128 -0.00224139 0.011032 3.56483
0.113 0.00141062 -0.00490889 3.52873
0.1132 0.0085965 5.41165e-05 3.50045
0.1134 -0.00563211 0.00306754 3.45769
0.1136 0.000368427 0.00205314 3.44221
0.1138 0.00576748 -0.00425516 3.4281
0.114 -0.00873473 0.00882329 3.4083
0.1142 -0.00430227 0.00614104 3.39808
0.1144 0.0061811 -0.00506552 3.39384
0.1146 0.00499623 0.000366737 3.37696
0.1148 -0.00376877 0.00141981 3.35155
0.115 -0.00207038 0.0052524 3.33844
0.1152 0.00101429 0.000864921 3.32389
0.1154 0.012081 -0.00951795 3.29719
0.1156 -0.0031304 0.00521228 3.27544
0.1158 -0.000460877 0.000577609 3.25763
0.116 0.0119512 -0.00721765 3.2448
0.1162 0.00410569 -0.00144106 3.21142
0.1164 -0.000744434 0.00128132 3.16279
0.1166 -0.00457328 0.00320043 3.1197
0.1168 0.00672378 -0.00207898 3.10513
0.117 0.00841504 -0.00518367 3.08157
0.1172 -0.00622674 0.00353755 3.04817
0.1174 -0.00611755 0.00975814 3.0271
0.1176 0.00661251 -0.00728483 3.01253
0.1178 0.0112274 -0.00388373 2.99339
0.118 -0.00699556 0.00751967 2.94234
0.1182 -0.0121097 0.00905929 2.91491
0.1184 0.000362318 0.00452557 2.91681
0.1186 0.00682833 -0.00646383 2.91705
0.1188 0.00179978 0.00639324 2.90082
0.119 -0.00861147 0.00376948 2.88604
0.1192 0.00652862 0.00203756 2.88963
0.1194 -0.000725413 -0.000296705 2.88502
0.1196 -0.00229893 0.0053058 2.8789
0.1198 0.00232819 -0.0024486 2.86909
0.12 -0.00274455 0.00590542 2.86777
0.1202 0.00155175 0.000156299 2.86324
0.1204 0.0107803 -0.00819998 2.84334
0.1206 -0.00538018 0.00436662 2.82151
0.1208 -0.00230368 0.0056706 2.81251
0.121 0.0069207 -0.00859737 2.80115
0.1212 0.00849572 0.000643483 2.76088
0.1214 -0.0032422 -0.00190544 2.71113
0.1216 0.00212626 0.00626723 2.68173
0.1218 0.0114654 -0.0129814 2.63523
0.122 0.00143598 0.00382296 2.58826
0.1222 -0.0117037 0.013021 2.54437
0.1224 0.00335155 -0.00395174 2.51679
0.1226 0.0125138 -0.00490218 2.49586
0.1228 -0.00676123 0.00530612 2.46521
0.123 0.00113499 0.00490237 2.43437
0.1232 -0.00171918 -0.00160322 2.41129
0.1234 0.0140136 -7.77436e-05 2.39325
0.1236 -0.00105037 -0.00739834 2.35064
0.1238 -0.00208475 0.0117557 2.33461
0.124 -0.00606591 0.000489795 2.31202
0.1242 0.0123636 -0.00508777 2.28803
0.1244 -0.0060207 0.000159734 2.25996
0.1246 -0.00262799 0.00756863 2.24624
0.1248 -0.00028964 -0.00611509 2.22498
0.125 0.00753802 0.00121803 2.21427
0.1252 0.00109164 -0.00264623 2.19647
0.1254 0.000568739 0.00645424 2.18549
0.1256 -0.00479949 0.00284855 2.17195
0.1258 0.00650787 -0.00191505 2.15373
0.126 -0.00377063 -0.000644741 2.13617
0.1262 -8.0265e-05 0.00125571 2.1237
0.1264 0.00300277 0.00264092 2.12364
0.1266 -0.0029612 -0.000955262 2.11149
0.1268 0.0103062 -0.00603768 2.10457
0.127 -0.00191124 -0.00410819 2.08083
0.1272 -0.00396742 0.01106 2.06868
0.1274 -0.000650488 -0.00952783 2.06081
0.1276 0.00640045 0.00417229 2.04861
0.1278 -0.00523507 -0.00386725 2.03046
0.128 0.00728425 0.00634847 2.02539
0.1282 -0.00331611 -0.00822049 2.01053
0.1284 0.00788344 0.00594417 2.00695
0.1286 -0.00335314 -0.00448833 1.98599
0.1288 0.00795115 0.00184333 1.97841
0.129 -0.00525628 -0.00271235 1.95117
0.1292 0.00364547 0.005864 1.9403
0.1294 -0.00271327 -0.00210302 1.9211
0.1296 -0.00106167 0.0018048 1.91787
0.1298 -0.00201732 0.00403412 1.90578
0.13 -0.00728307 0.00391493 1.89331
0.1302 0.00569363 -0.00349776 1.89772
0.1304 -0.000229006 0.00360214 1.88949
0.1306 -0.00522523 0.000209574 1.89191
0.1308 0.00424082 0.0030699 1.89527
0.131 0.0065258 -0.00944763 1.87431
0.1312 -0.00129465 0.00880094 1.85483
0.1314 -0.00231586 -0.00114941 1.84058
0.1316 0.00762047 -0.004479 1.85061
0.1318 -0.00260104 -0.000502714 1.85286
0.132 -0.00492155 0.00533116 1.86893
0.1322 0.00116264 -0.000178861 1.86935
0.1324 0.00819204 -0.00593624 1.88402
0.1326 0.00123355 -0.00350286 1.90321
0.1328 -0.000728434 0.0100678 1.91267
0.133 -0.00744872 -0.0046218 1.90984
0.1332 0.00651808 0.00756718 1.92041
0.1334 -0.00212348 -0.00556363 1.90496
0.1336 0.00925099 0.0015812 1.90886
0.1338 -0.00603417 -0.00254276 1.89471
0.134 0.00384121 0.00530297 1.90034
0.1342 -0.00885599 0.00221083 1.89011
0.1344 0.00841928 0.00186778 1.89906
0.1346 0.00579999 -0.0123271 1.89023
0.1348 -0.00546869 0.00846388 1.90013
0.135 -0.00510423 0.00485432 1.91065
0.1352 0.0072143 -0.00135065 1.92522
0.1354 0.00379727 -0.00221267 1.93142
0.1356 0.000151186 -0.000548091 1.93643
0.1358 -0.00273838 0.00448855 1.94775
0.136 -0.00273681 -0.00309942 1.95916
0.1362 0.00801609 -0.000134648 1.98807
0.1364 -0.00457458 0.00238325 1.99169
0.1366 -0.00067736 0.00264756 2.01154
0.1368 0.00264312 -0.00369409 2.03431
0.137 -0.00749829 0.0101983 2.04615
0.1372 0.000177774 -0.00129364 2.05996
0.1374 0.0099002 -0.00217286 2.07496
0.1376 -0.0119306 0.00326123 2.07837
0.1378 0.00116541 0.007998 2.10024
0.138 0.00854361 -0.0109885 2.09984
0.1382 0.0058833 0.00183535 2.09116
0.1384 -0.0149228 0.0117641 2.07426
0.1386 0.0042689 -0.00249729 2.08085
0.1388 0.0113269 -0.00958451 2.08699
0.139 -0.00675044 0.00381769 2.08586
0.1392 -0.00196727 0.00882985 2.10062
0.1394 -0.00332784 0.000915868 2.0987
0.1396 0.00873029 -0.00444142 2.09918
0.1398 -0.00714727 0.00085191 2.10108
0.14 -0.00360958 0.00854403 2.11309
0.1402 0.00662815 -0.00973135 2.10934
0.1404 -0.0030771 0.00354791 2.10931
0.1406 -0.00367236 0.00417009 2.1163
0.1408 0.00436105 -0.00654575 2.12067
0.141 0.00339745 0.00150922 2.1322
0.1412 -0.00518552 0.00371118 2.14245
0.1414 0.00248993 0.000566146 2.15053
0.1416 2.5143e-05 -0.00775939 2.16434
0.1418 0.00525265 0.0061093 2.17439
0.142 -0.0141994 4.33067e-05 2.1678
0.1422 0.0119212 0.00448427 2.18727
0.1424 0.0037502 -0.0133159 2.17478
0.1426 0.00151287 0.0100716 2.1685
0.1428 -0.018455 0.00403553 2.14651
0.143 0.0174462 -0.00211925 2.15233
0.1432 0.00213251 -0.00871755 2.12993
0.1434 -0.000809888 0.0139598 2.12124
0.1436 -0.00489937 0.00275392 2.122
0.1438 0.00626064 0.00537061 2.13189
0.144 0.00520955 -0.0124717 2.13048
0.1442 -0.00447272 0.00827314 2.13213
0.1444 -0.00111547 0.000649266 2.12073
0.1446 0.00579843 -0.00693065 2.10801
0.1448 0.00684676 0.00212647 2.10697
0.145 -0.00500226 -0.00136855 2.08386
0.1452 0.00144284 0.00971891 2.08347
0.1454 -0.00478112 -0.00153853 2.08346
0.1456 0.00897799 0.00252108 2.08828
0.1458 -0.00538535 -0.00198314 2.08404
0.146 0.00617782 0.000581703 2.08884
0.1462 -0.000613 0.000842643 2.09017
0.1464 -0.00252318 0.00102998 2.08224
0.1466 -0.000547811 0.000834744 2.08512
0.1468 -0.00277429 0.00158359 2.0814
0.147 0.0107897 -0.00749521 2.08733
0.1472 -0.00513006 -0.00248119 2.08646
0.1474 -0.00716766 0.0120652 2.09551
0.1476 -0.000225124 -0.00160451 2.10262
0.1478 0.00848388 0.00151355 2.11706
0.148 -0.00013449 -0.00584813 2.12393
0.1482 -0.00358684 0.00963112 2.13792
0.1484 -0.00386944 -0.00117823 2.15066
0.1486 0.0105365 -0.00590691 2.16534
0.1488 -0.000854497 -0.00259973 2.15881
0.149 -0.00695261 0.0108513 2.15243
0.1492 -0.00422634 0.000635109 2.16013
0.1494 0.00705655 -0.00888776 2.1568
0.1496 -0.00353129 0.0075177 2.17027
0.1498 -0.00741264 0.00098888 2.1737
0.15 0.00413035 -0.00150715 2.18901
0.1502 0.00230152 -0.00294838 2.19851
0.1504 0.00294209 0.00400444 2.20549
0.1506 -0.00282201 0.00403111 2.2083
0.1508 0.0101258 -0.00121889 2.21722
0.151 0.000476702 0.00203448 2.217
0.1512 -0.00213237 -0.00265806 2.21473
0.1514 0.00222277 0.0023096 2.22171
0.1516 -0.00642182 0.00192697 2.22492
0.1518 0.0130534 -0.00416273 2.24031
0.152 -0.00404437 -0.000696705 2.24826
0.1522 -0.000375036 0.00412575 2.25117
0.1524 -0.0032878 0.000836404 2.25332
0.1526 0.00928715 -0.00498196 2.2594
0.1528 -0.000999024 -0.000632469 2.25743
0.153 -0.00831869 0.010304 2.25572
0.1532 0.00674082 0.00195445 2.27374
0.1534 0.00499679 -0.00654343 2.27163
0.1536 0.0049609 0.00533684 2.2681
0.1538 -0.00505519 -0.00358284 2.26299
0.154 -0.000506719 0.0119852 2.27344
0.1542 -0.00292356 -0.0117873 2.26809
0.1544 0.0122338 0.00297388 2.28834
0.1546 -0.00864677 -0.00119561 2.28301
0.1548 -0.00148457 0.00648104 2.27923
0.155 0.000862199 -0.00319532 2.27239
0.1552 0.00365519 0.00229005 2.26114
0.1554 -0.00217894 -0.00158201 2.25341
0.1556 0.00748973 -0.0019873 2.26155
0.1558 -0.00157076 -0.00132896 2.25308
0.156 -0.00353295 0.0090733 2.2597
0.1562 0.00471533 -0.000924885 2.26587
0.1564 -0.000833652 0.00348089 2.26016
0.1566 0.00571726 -0.00414849 2.26223
0.1568 0.000301748 0.00467961 2.2566
0.157 -0.00130449 0.000785009 2.24875
0.1572 0.0024748 -0.00227785 2.24864
0.1574 -0.000920918 0.00148306 2.23876
0.1576 0.00160959 -0.00160261 2.23702
0.1578 0.00490343 0.00405693 2.22885
0.158 -0.00823042 -0.00281204 2.2194
0.1582 0.00648628 -0.00177219 2.2306
0.1584 -0.0026153 -0.00229372 2.23236
0.1586 -0.00133046 0.00869208 2.24745
0.1588 -0.000819073 -0.00528671 2.25497
0.159 0.00106357 0.00687848 2.27143
0.1592 -0.00249823 -0.00263415 2.26929
0.1594 -0.00220032 0.00587239 2.28347
0.1596 0.00262362 -0.0021946 2.29912
0.1598 0.00426447 -0.00676822 2.30958
0.16 -0.00385488 0.00919009 2.3174
0.1602 0.000659566 -0.00422403 2.30821
0.1604 0.00320634 0.00179329 2.32513
0.1606 -0.000637589 -0.00248674 2.32846
0.1608 0.0013412 -0.00280075 2.33398
0.161 -0.00555086 0.00292231 2.33393
0.1612 0.00420422 0.00229582 2.34416
0.1614 -0.00419033 -0.00295551 2.34131
0.1616 0.00413548 0.00441509 2.35419
0.1618 -0.00479492 -0.00530803 2.35589
0.162 0.00364513 0.00336909 2.36654
0.1622 -0.00561061 -0.00142853 2.36746
0.1624 0.00222727 0.00701808 2.38287
0.1626 -0.000218343 -0.00671124 2.38483
0.1628 -0.00570041 0.00783869 2.39269
0.163 -0.00296202 -0.000203333 2.40786
0.1632 0.00748816 0.00215223 2.421
0.1634 -0.00470033 -0.00245509 2.42278
0.1636 0.00401483 0.00272889 2.43464
0.1638 -0.00614834 0.00275095 2.43082
0.164 0.00475894 -0.00131035 2.43284
0.1642 -0.00122825 -0.00175595 2.42945
0.1644 0.00240358 -0.00185873 2.43639
0.1646 0.00248779 0.00156822 2.44041
0.1648 -0.00413085 0.00618854 2.45261
0.165 0.00448876 -0.00430495 2.47366
0.1652 0.00057719 -0.000294814 2.48382
0.1654 -0.00636169 0.00171514 2.49386
0.1656 0.00551403 0.00173952 2.51667
0.1658 0.000880081 -0.00468011 2.5198
0.166 -0.00637556 0.0114582 2.54312
0.1662 -0.000702726 -0.00469262 2.55018
0.1664 0.00425286 -0.0082614 2.56777
0.1666 0.000624314 0.00545477 2.58955
0.1668 -0.00582249 0.00408103 2.60589
0.167 0.00222892 0.00217457 2.63076
0.1672 0.0139257 -0.00509538 2.65445
0.1674 -0.00531161 -0.0036454 2.67028
0.1676 -0.00508663 0.0119583 2.69231
0.1678 0.0048673 -0.00905576 2.70733
0.168 0.00608166 8.44182e-06 2.72455
0.1682 -0.00443378 0.00117577 2.72934
0.1684 -0.000798609 0.00150303 2.74376
0.1686 0.00807613 -0.00245736 2.76228
0.1688 -0.00274354 -0.00468163 2.76819
0.169 0.00218687 0.00774376 2.79058
0.1692 -0.00220322 -0.00113604 2.7957
0.1694 0.00717711 0.000308079 2.81632
0.1696 -0.00728743 -0.00191736 2.825
0.1698 0.00879261 0.00772121 2.84124
0.17 -0.00319062 -0.00985208 2.83608
0.1702 0.00615875 0.0075625 2.84963
0.1704 -0.0112837 0.000979862 2.84615
0.1706 0.00915185 -0.00367445 2.86824
0.1708 0.000772442 -0.00481202 2.87861
0.171 -0.00511091 0.00261905 2.88614
0.1712 0.00277441 0.00103382 2.90381
0.1714 0.00452552 -0.0038858 2.9105
0.1716 0.00359238 -0.000678294 2.91931
0.1718 -0.00877345 0.0125365 2.91166
0.172 -0.00262753 0.00130959 2.9101
0.1722 0.0130201 -0.00465598 2.93051
0.1724 -0.00186048 0.0016242 2.93885
0.1726 -0.00207337 0.00653257 2.95858
0.1728 0.00616574 -0.00359758 2.96692
0.173 0.00567195 -0.00733185 2.97678
0.1732 -0.00267954 0.00567044 2.98904
0.1734 -0.00626402 -0.00139437 2.9945
0.1736 9.80199e-05 0.00704225 3.01702
0.1738 0.00570855 -0.00917138 3.03596
0.174 -0.000720802 0.00518373 3.05318
0.1742 -0.00490102 0.00236257 3.06821
0.1744 0.0108251 -0.00332072 3.07668
0.1746 -0.000495981 -0.00355303 3.07829
0.1748 0.00298331 0.00683631 3.08287
0.175 -0.0083862 0.00106459 3.07892
0.1752 0.0115569 -0.00382977 3.09649
0.1754 -0.00203773 -0.00468499 3.0932
0.1756 -0.00686227 0.00495233 3.1035
0.1758 0.00590859 0.00224757 3.1159
0.176 -0.00462965 0.00109396 3.12256
0.1762 0.0103977 -0.00315232 3.14459
0.1764 -0.00448846 0.00107649 3.15892
0.1766 0.000190742 0.00947898 3.17349
0.1768 0.00115749 -0.00856499 3.16826
0.177 0.00358063 -0.001851 3.17757
0.1772 0.00123555 0.00260351 3.18628
0.1774 0.0033577 0.000940763 3.19609
0.1776 -0.000873018 0.00307578 3.2037
0.1778 -0.00207408 -0.000104761 3.21567
0.178 0.00326548 -0.00147581 3.23037
0.1782 -0.00103282 0.00249984 3.24696
0.1784 -0.000954839 0.00300788 3.25778
0.1786 0.00339713 -0.0039715 3.27148
0.1788 -0.00208136 0.00498793 3.28334
0.179 0.00137039 -0.000685124 3.29043
0.1792 0.00142668 -0.00464397 3.29467
0.1794 0.000235906 0.00262792 3.30442
0.1796 -0.00360984 0.00280828 3.31034
0.1798 0.00161706 -0.00679061 3.32272
0.18 0.00372923 -0.00206804 3.34266
0.1802 -0.0046326 0.0102483 3.36
0.1804 0.002746 -0.00646186 3.36242
0.1806 0.00496075 -0.000411116 3.38077
0.1808 -0.00274047 0.00124798 3.38734
0.181 -0.00425897 0.00593172 3.39131
0.1812 0.00192076 -0.00373685 3.40057
0.1814 0.00448599 -0.00435328 3.41131
0.1816 0.00255055 0.00190315 3.4203
0.1818 -0.00372664 0.00392839 3.42335
0.182 0.00520383 -0.00253501 3.43452
0.1822 -0.000893951 -0.0027371 3.43516
0.1824 0.00158679 0.00679754 3.4539
0.1826 -0.00205843 -0.00232844 3.45387
0.1828 0.00747747 -0.000676932 3.46368
0.183 -0.00793983 0.00737446 3.46238
0.1832 -0.00107995 -0.00146263 3.46142
0.1834 2.23704e-05 -0.00172667 3.46815
0.1836 7.61969e-05 -0.00372868 3.46389
0.1838 -0.00332261 0.00927388 3.46797
0.184 -0.00316363 -0.00584816 3.45801
0.1842 0.0101784 -0.00486281 3.46744
0.1844 -0.0161092 0.010654 3.4638
0.1846 0.00900427 0.0039623 3.47408
0.1848 0.0046161 -0.0136076 3.46531
0.185 0.00432105 0.00176045 3.46997
0.1852 -0.00820403 0.00688269 3.47208
0.1854 -0.00309738 0.0017115 3.47502
0.1856 0.012599 -0.0148059 3.4828
0.1858 -0.002673 0.00503859 3.48562
0.186 -0.00912884 0.00559973 3.48663
0.1862 0.00847816 0.000173245 3.49502
0.1864 0.00152727 -0.0066127 3.49186
0.1866 0.00190919 0.00652343 3.49807
0.1868 -0.00956826 0.0056377 3.4971
0.187 0.00792685 -0.0047379 3.50769
0.1872 0.00524823 -0.000707342 3.51059
0.1874 -0.000646236 0.00445966 3.51465
0.1876 -0.00089298 0.00219497 3.507
0.1878 0.00255138 0.000676034 3.50916
0.188 0.00298124 -0.00334466 3.52087
0.1882 -0.00374864 -0.00226647 3.53143
0.1884 0.00522265 0.000917335 3.54912
0.1886 -0.00330293 -0.00133773 3.55847
0.1888 0.00586781 0.00317511 3.5802
0.189 0.00222279 -0.00616389 3.58628
0.1892 0.00298685 0.00636764 3.60517
0.1894 0.000771915 -0.00389199 3.61855
0.1896 0.00291554 -0.00183162 3.64504
0.1898 0.00158688 0.00276557 3.65637
0.19 -0.00542998 -2.03789e-05 3.66754
0.1902 0.00719441 0.00556371 3.68372
0.1904 -0.00103933 -0.00952398 3.68798
0.1906 0.00451567 0.00385971 3.7057
0.1908 -0.00495194 -0.00211699 3.70972
0.191 0.00605558 0.003549 3.7254
0.1912 0.002448 -0.00667425 3.73159
0.1914 0.00243116 -0.00246484 3.756
0.1916 -0.00324165 0.0113427 3.77412
0.1918 0.00156173 -0.00780484 3.78744
0.192 0.00733613 0.00206761 3.81514
0.1922 -0.00993918 0.000559464 3.838
0.1924 0.00637436 -0.0017871 3.86782
0.1926 -0.00384209 -0.00416414 3.88469
0.1928 -0.00264173 0.00379046 3.91063
0.193 0.0055931 -0.0064653 3.92273
0.1932 -0.00114526 0.000119996 3.93404
0.1934 0.000477741 0.00134548 3.93213
0.1936 0.000224453 -0.00653492 3.9372
0.1938 0.000433805 0.00432113 3.93721
0.194 -0.00367928 -0.000901125 3.94083
0.1942 -0.00359053 0.00290617 3.95558
0.1944 0.00180118 -0.00344422 3.95571
0.1946 0.000294967 0.00263535 3.96297
0.1948 -0.00522575 0.00157518 3.97026
0.195 0.00566585 -0.00398184 3.98011
0.1952 -0.00141482 -0.00152505 3.98704
0.1954 -0.00116119 0.0011165 4.00327
0.1956 0.00860869 0.00244225 4.0202
0.1958 -0.00814147 -0.00607494 4.01787
0.196 0.00604216 0.0169327 4.05032
0.1962 -0.00527921 -0.0107733 4.04984
0.1964 0.0120885 0.00541342 4.07328
0.1966 -0.00851029 0.00505316 4.0709
0.1968 0.00142585 -0.00262723 4.07398
0.197 0.00581482 -0.00422622 4.08497
0.1972 -0.00620162 0.00167032 4.08225
0.1974 0.00516367 -0.00074528 4.09285
0.1976 0.000625968 -0.00386976 4.09553
0.1978 0.000598307 0.00710623 4.10327
0.198 -0.00537567 0.00202162 4.11037
0.1982 0.0079149 -0.00329033 4.11742
0.1984 -0.00211803 -0.00208794 4.11707
0.1986 0.0012379 0.00715076 4.12934
0.1988 0.00389532 -0.00992502 4.13688
0.199 0.00292464 0.0100364 4.14013
0.1992 -0.00708927 0.0052105 4.14381
0.1994 0.0100578 -0.00171416 4.15781
0.1996 -0.003984 0.000519173 4.15806
0.1998 0.000947673 0.00769481 4.16323
0.2 0.000818543 -0.00923281 4.15661